ParticipantNo,Trial,AttendedColor,Reward,EventType,Response,RT
1,1,2,0,1,0,NaN
1,1,2,0,2,1,458
1,6,2,0,2,0,NaN
1,6,2,0,2,1,483
1,6,2,0,1,0,NaN
1,9,2,0,2,0,NaN
1,9,2,0,2,0,NaN
1,9,2,0,2,1,383
1,10,2,0,2,1,433
1,11,1,0,1,1,507
1,12,2,0,1,3,NaN
1,12,2,0,1,3,NaN
1,15,1,0,1,1,433
1,16,1,0,2,0,NaN
1,16,1,0,1,0,NaN
1,16,1,0,1,1,475
1,19,2,0,2,1,509
1,19,2,0,1,0,NaN
1,20,2,0,2,0,NaN
1,20,2,0,2,0,NaN
1,20,2,0,2,1,433
1,21,2,0,2,0,NaN
1,21,2,0,2,1,524
1,21,2,0,1,0,NaN
1,22,2,0,1,3,NaN
1,22,2,0,1,3,NaN
1,23,1,0,2,3,NaN
1,23,1,0,2,3,NaN
1,23,1,0,2,3,NaN
1,24,1,0,1,1,576
1,24,1,0,2,0,NaN
1,26,1,0,2,3,NaN
1,27,1,0,1,1,617
1,29,1,0,2,3,NaN
1,29,1,0,2,3,NaN
1,32,2,0,2,1,599
1,36,1,0,2,0,NaN
1,36,1,0,1,1,441
1,37,1,0,2,0,NaN
1,37,1,0,1,1,458
1,38,2,0,2,1,483
1,38,2,0,1,0,NaN
1,38,2,0,1,0,NaN
1,39,1,0,2,0,NaN
1,39,1,0,1,0,NaN
1,39,1,0,1,1,534
1,41,1,0,1,1,533
1,43,2,0,1,3,NaN
1,43,2,0,2,0,NaN
1,43,2,0,1,3,NaN
1,45,1,0,2,3,NaN
1,45,1,0,2,3,NaN
1,45,1,0,2,3,NaN
1,46,2,0,2,1,850
1,48,1,0,2,0,NaN
1,48,1,0,1,1,492
1,48,1,0,2,0,NaN
1,49,1,0,1,0,NaN
1,49,1,0,1,1,558
1,51,2,0,2,0,NaN
1,51,2,0,2,1,541
1,52,2,0,2,1,483
1,53,2,0,1,0,NaN
1,53,2,0,2,1,434
1,56,1,0,2,3,NaN
1,58,2,0,1,0,NaN
1,58,2,0,1,0,NaN
1,58,2,0,2,1,583
1,60,1,0,2,0,NaN
1,60,1,0,1,1,524
1,63,1,0,2,3,NaN
1,64,1,0,1,1,575
1,66,2,0,1,0,NaN
1,66,2,0,2,1,442
1,67,2,0,1,3,NaN
1,69,2,0,1,0,NaN
1,69,2,0,2,1,517
1,70,2,0,2,0,NaN
1,70,2,0,2,1,392
1,74,2,0,1,3,NaN
1,75,1,0,2,0,NaN
1,75,1,0,2,2,650
1,77,2,0,1,3,NaN
1,78,2,0,1,0,NaN
1,78,2,0,2,1,550
1,79,1,0,1,1,608
1,80,1,0,2,0,NaN
1,80,1,0,1,1,491
1,83,1,0,1,0,NaN
1,83,1,0,1,1,517
1,84,1,0,2,3,NaN
1,86,1,0,1,0,NaN
1,86,1,0,1,1,475
1,86,1,0,2,0,NaN
1,87,1,0,2,0,NaN
1,87,1,0,1,0,NaN
1,87,1,0,1,1,459
1,91,1,0,2,3,NaN
1,92,2,0,1,0,NaN
1,92,2,0,2,1,483
1,92,2,0,1,0,NaN
1,94,1,0,2,3,NaN
1,95,2,0,2,1,583
1,95,2,0,1,0,NaN
1,96,2,0,1,3,NaN
1,97,2,0,2,0,NaN
1,97,2,0,2,1,525
1,97,2,0,1,0,NaN
1,99,1,0,2,3,NaN
1,99,1,0,2,3,NaN
1,99,1,0,2,3,NaN
1,101,1,0,2,3,NaN
1,101,1,0,2,3,NaN
1,101,1,0,2,3,NaN
1,102,2,0,2,1,458
1,103,2,0,1,0,NaN
1,103,2,0,1,0,NaN
1,103,2,0,2,1,474
1,105,2,0,1,3,NaN
1,107,2,0,2,1,550
1,108,1,0,2,3,NaN
1,108,1,0,2,3,NaN
1,108,1,0,2,3,NaN
1,109,2,0,1,0,NaN
1,109,2,0,2,0,NaN
1,109,2,0,2,1,450
1,110,1,0,1,1,533
1,110,1,0,2,0,NaN
1,111,2,0,1,3,NaN
1,111,2,0,1,3,NaN
1,112,2,0,1,3,NaN
1,112,2,0,1,3,NaN
1,113,1,0,1,1,600
1,113,1,0,2,0,NaN
1,114,1,0,1,1,550
1,115,1,0,1,1,575
1,116,1,0,2,3,NaN
1,120,2,0,2,1,533
1,121,1,0,2,3,NaN
1,121,1,0,2,3,NaN
1,122,2,0,1,3,NaN
1,122,2,0,1,3,NaN
1,123,1,0,1,0,NaN
1,123,1,0,1,1,426
1,123,1,0,2,0,NaN
1,124,2,0,2,1,567
1,124,2,0,1,0,NaN
1,125,1,0,2,0,NaN
1,125,1,0,1,1,641
1,125,1,0,2,0,NaN
1,129,2,0,1,3,NaN
1,131,2,0,1,0,NaN
1,131,2,0,2,0,NaN
1,131,2,0,2,1,442
1,134,1,0,2,3,NaN
1,134,1,0,2,3,NaN
1,134,1,0,2,3,NaN
1,138,1,0,1,0,NaN
1,138,1,0,1,1,458
1,139,1,0,1,0,NaN
1,139,1,0,1,1,442
1,139,1,0,2,0,NaN
1,143,2,0,2,1,533
1,143,2,0,1,0,NaN
1,144,2,0,2,0,NaN
1,144,2,0,2,1,417
1,146,2,0,1,3,NaN
1,147,1,0,1,1,541
1,148,1,0,1,0,NaN
1,148,1,0,1,1,483
1,148,1,0,2,0,NaN
1,149,2,0,2,0,NaN
1,149,2,0,2,1,500
1,149,2,0,1,0,NaN
1,150,1,0,1,0,NaN
1,150,1,0,2,0,NaN
1,150,1,0,1,1,492
1,152,1,0,2,3,NaN
1,152,1,0,2,3,NaN
1,155,2,0,1,3,NaN
1,155,2,0,1,3,NaN
1,156,1,0,1,1,558
1,157,1,0,2,3,NaN
1,158,2,0,2,0,NaN
1,158,2,0,2,0,NaN
1,158,2,0,2,1,508
1,159,1,0,2,3,NaN
1,160,1,0,1,0,NaN
1,160,1,0,1,1,483
1,161,1,0,1,0,NaN
1,161,1,0,1,1,442
1,162,2,0,2,0,NaN
1,162,2,0,2,1,492
1,163,2,0,1,3,NaN
1,164,1,0,1,0,NaN
1,164,1,0,1,1,500
1,165,1,0,1,0,NaN
1,165,1,0,1,1,458
1,166,2,0,1,0,NaN
1,166,2,0,1,0,NaN
1,166,2,0,2,1,567
1,168,2,0,1,3,NaN
1,168,2,0,1,3,NaN
1,170,2,0,2,1,517
1,170,2,0,1,0,NaN
1,173,1,0,1,0,NaN
1,173,1,0,2,0,NaN
1,173,1,0,1,1,442
1,175,2,0,2,0,NaN
1,175,2,0,1,2,634
1,175,2,0,1,0,NaN
1,178,2,0,1,3,NaN
1,179,1,0,1,1,434
1,179,1,0,2,0,NaN
1,180,1,0,1,0,NaN
1,180,1,0,1,0,NaN
1,180,1,0,1,1,500
1,186,2,0,1,3,NaN
1,186,2,0,1,3,NaN
1,187,2,0,1,3,NaN
1,188,1,0,2,0,NaN
1,188,1,0,1,1,693
1,189,2,0,2,0,NaN
1,189,2,0,2,1,425
1,192,1,0,1,1,508
1,192,1,0,2,0,NaN
1,195,1,0,1,1,516
1,195,1,0,2,0,NaN
1,196,1,0,1,0,NaN
1,196,1,0,1,1,459
1,196,1,0,2,0,NaN
1,197,2,0,1,0,NaN
1,197,2,0,2,1,459
1,198,2,0,1,0,NaN
1,198,2,0,2,1,417
1,199,2,0,2,0,NaN
1,199,2,0,2,1,458
1,199,2,0,1,0,NaN
1,200,2,0,1,0,NaN
1,200,2,0,2,1,483
1,201,2,0,2,0,NaN
1,201,2,1,2,1,483
1,202,2,0,2,0,NaN
1,202,2,0,2,1,517
1,208,1,0,1,0,NaN
1,208,1,1,1,0,NaN
1,208,1,1,1,1,474
1,210,2,1,2,1,518
1,210,2,0,1,0,NaN
1,210,2,0,1,0,NaN
1,212,1,0,2,3,NaN
1,212,1,0,2,3,NaN
1,213,2,0,2,0,NaN
1,213,2,0,1,2,500
1,214,1,0,1,0,NaN
1,214,1,1,1,0,NaN
1,214,1,1,1,1,568
1,220,1,1,1,1,566
1,221,1,0,2,0,NaN
1,221,1,1,1,1,425
1,222,1,0,2,3,NaN
1,222,1,0,2,3,NaN
1,223,1,0,2,0,NaN
1,223,1,0,2,0,NaN
1,223,1,1,1,1,550
1,224,1,0,2,3,NaN
1,226,1,0,2,3,NaN
1,227,2,0,1,0,NaN
1,227,2,0,1,0,NaN
1,227,2,0,2,1,500
1,228,2,0,1,3,NaN
1,228,2,0,1,3,NaN
1,228,2,0,1,3,NaN
1,229,2,0,2,0,NaN
1,229,2,0,2,1,433
1,230,1,0,2,0,NaN
1,230,1,1,1,1,526
1,231,2,1,2,0,NaN
1,231,2,0,2,1,425
1,231,2,0,1,0,NaN
1,232,2,0,1,0,NaN
1,232,2,1,2,1,500
1,235,2,0,1,3,NaN
1,235,2,0,1,3,NaN
1,235,2,0,1,3,NaN
1,236,1,0,2,3,NaN
1,236,1,0,2,3,NaN
1,238,2,0,2,1,692
1,241,2,0,1,3,NaN
1,244,2,0,2,1,459
1,244,2,0,1,0,NaN
1,246,1,0,2,0,NaN
1,246,1,1,1,0,NaN
1,246,1,0,1,1,550
1,247,2,0,1,0,NaN
1,247,2,0,1,0,NaN
1,247,2,0,2,1,493
1,248,2,0,2,1,533
1,248,2,0,1,0,NaN
1,252,2,0,1,0,NaN
1,252,2,0,2,1,409
1,252,2,0,1,0,NaN
1,253,1,1,1,0,NaN
1,253,1,1,1,1,424
1,253,1,0,2,0,NaN
1,254,1,0,2,3,NaN
1,255,1,0,2,0,NaN
1,255,1,0,1,1,509
1,255,1,0,2,0,NaN
1,256,2,0,2,1,467
1,258,2,1,2,0,NaN
1,258,2,1,2,0,NaN
1,258,2,0,2,1,467
1,260,2,0,2,1,642
1,260,2,0,1,0,NaN
1,261,1,1,1,1,500
1,261,1,0,2,0,NaN
1,262,1,1,1,0,NaN
1,262,1,1,1,1,458
1,263,1,0,2,0,NaN
1,263,1,1,1,1,526
1,264,2,0,1,2,583
1,264,2,0,1,0,NaN
1,265,1,0,2,3,NaN
1,265,1,0,1,0,NaN
1,266,1,0,2,3,NaN
1,267,2,0,1,3,NaN
1,267,2,0,1,3,NaN
1,270,1,0,2,0,NaN
1,270,1,1,1,1,575
1,272,2,0,1,3,NaN
1,272,2,0,1,3,NaN
1,274,1,0,2,3,NaN
1,275,2,0,1,0,NaN
1,275,2,0,2,1,583
1,276,2,0,1,3,NaN
1,276,2,0,1,3,NaN
1,277,1,0,2,3,NaN
1,277,1,0,2,3,NaN
1,278,1,0,2,3,NaN
1,278,1,0,2,3,NaN
1,280,1,0,2,3,NaN
1,280,1,0,2,3,NaN
1,285,2,0,2,0,NaN
1,285,2,0,1,0,NaN
1,285,2,0,2,1,516
1,286,2,0,2,1,542
1,288,2,0,2,1,517
1,288,2,0,1,0,NaN
1,288,2,0,1,0,NaN
1,289,2,0,1,3,NaN
1,289,2,0,1,3,NaN
1,290,1,1,1,0,NaN
1,290,1,0,2,0,NaN
1,290,1,1,1,1,492
1,293,1,1,1,0,NaN
1,293,1,1,1,0,NaN
1,293,1,1,1,1,500
1,296,2,0,1,3,NaN
1,297,1,0,2,3,NaN
1,300,2,0,2,1,517
1,300,2,0,1,0,NaN
1,301,2,0,1,3,NaN
1,305,2,0,2,0,NaN
1,305,2,0,1,2,701
1,305,2,0,1,0,NaN
1,306,1,0,2,0,NaN
1,306,1,1,1,1,575
1,309,2,0,2,0,NaN
1,309,2,0,2,1,441
1,310,2,0,2,0,NaN
1,310,2,0,2,1,467
1,311,1,1,1,1,518
1,311,1,0,2,0,NaN
1,313,1,0,2,0,NaN
1,313,1,1,1,1,466
1,314,1,1,1,1,509
1,315,1,1,1,1,458
1,317,2,0,1,0,NaN
1,317,2,0,2,1,483
1,320,2,1,2,1,609
1,321,1,0,2,3,NaN
1,321,1,0,2,3,NaN
1,321,1,0,2,3,NaN
1,322,1,0,1,1,575
1,323,1,0,2,3,NaN
1,324,2,1,2,1,634
1,325,1,1,1,0,NaN
1,325,1,1,1,1,450
1,326,1,0,2,0,NaN
1,326,1,0,2,0,NaN
1,326,1,0,1,1,534
1,327,2,0,2,0,NaN
1,327,2,0,2,1,441
1,330,2,0,1,0,NaN
1,330,2,0,2,1,451
1,330,2,0,1,0,NaN
1,333,1,1,1,1,492
1,334,1,1,1,1,500
1,338,1,0,1,0,NaN
1,338,1,0,2,0,NaN
1,338,1,0,1,1,450
1,339,1,0,2,0,NaN
1,339,1,1,1,1,516
1,343,2,0,2,1,616
1,344,1,0,2,0,NaN
1,344,1,1,1,1,458
1,345,2,0,2,1,476
1,346,2,0,1,0,NaN
1,346,2,1,2,1,508
1,348,2,0,1,0,NaN
1,348,2,0,2,1,525
1,349,1,0,2,0,NaN
1,349,1,0,2,0,NaN
1,349,1,0,1,1,483
1,350,2,0,1,0,NaN
1,350,2,1,2,1,483
1,351,1,0,1,1,408
1,351,1,0,2,0,NaN
1,352,1,0,2,0,NaN
1,352,1,1,1,1,484
1,354,2,0,2,1,575
1,354,2,0,1,0,NaN
1,355,2,0,2,1,567
1,357,1,1,1,1,476
1,357,1,0,2,0,NaN
1,358,1,0,2,3,NaN
1,359,2,1,2,1,425
1,359,2,0,1,0,NaN
1,360,2,0,2,0,NaN
1,360,2,0,1,0,NaN
1,360,2,0,2,1,533
1,361,2,0,2,0,NaN
1,361,2,0,2,1,425
1,362,1,1,1,0,NaN
1,362,1,1,1,0,NaN
1,362,1,1,1,1,533
1,363,2,0,1,0,NaN
1,363,2,0,1,0,NaN
1,363,2,1,2,1,518
1,366,1,0,2,0,NaN
1,366,1,1,1,0,NaN
1,366,1,1,1,1,492
1,367,2,0,2,1,483
1,369,2,0,2,1,692
1,369,2,0,1,0,NaN
1,370,1,0,2,3,NaN
1,370,1,0,2,3,NaN
1,370,1,0,2,3,NaN
1,371,1,1,1,0,NaN
1,371,1,1,1,1,493
1,372,2,0,1,3,NaN
1,373,1,1,1,0,NaN
1,373,1,0,1,0,NaN
1,373,1,1,1,1,500
1,376,1,1,1,1,517
1,378,1,0,2,3,NaN
1,379,1,0,2,3,NaN
1,379,1,0,2,3,NaN
1,380,2,0,1,0,NaN
1,380,2,0,2,1,451
1,382,2,0,1,0,NaN
1,382,2,0,2,1,458
1,386,2,0,1,0,NaN
1,386,2,0,2,1,432
1,386,2,0,1,0,NaN
1,388,1,1,1,1,441
1,388,1,0,2,0,NaN
1,389,2,0,2,0,NaN
1,389,2,0,2,1,425
1,390,1,0,2,3,NaN
1,390,1,0,2,3,NaN
1,391,1,0,2,0,NaN
1,391,1,1,1,0,NaN
1,391,1,1,1,1,476
1,396,2,0,1,3,NaN
1,398,1,1,1,1,500
1,399,2,0,1,0,NaN
1,399,2,0,2,1,442
1,400,2,0,1,3,NaN
1,402,2,0,1,0,NaN
1,402,2,0,1,0,NaN
1,402,2,0,2,1,492
1,403,2,0,2,0,NaN
1,403,2,0,2,1,375
1,404,1,0,2,3,NaN
1,404,1,0,2,3,NaN
1,405,2,0,2,0,NaN
1,405,2,0,2,1,500
1,408,1,0,2,3,NaN
1,408,1,0,2,3,NaN
1,409,2,0,2,0,NaN
1,409,2,0,2,1,417
1,413,1,0,2,0,NaN
1,413,1,0,1,1,533
1,416,2,0,1,3,NaN
1,416,2,0,1,3,NaN
1,417,1,0,1,0,NaN
1,417,1,0,1,0,NaN
1,417,1,0,1,1,458
1,421,2,0,2,1,491
1,422,2,0,2,0,NaN
1,422,2,0,2,0,NaN
1,422,2,0,2,1,493
1,424,1,0,1,1,450
1,425,2,0,1,0,NaN
1,425,2,0,2,1,526
1,425,2,0,1,0,NaN
1,426,1,0,2,3,NaN
1,429,1,0,1,1,558
1,429,1,0,2,0,NaN
1,431,1,0,1,1,457
1,431,1,0,2,0,NaN
1,431,1,0,2,0,NaN
1,432,1,0,2,0,NaN
1,432,1,0,1,1,458
1,432,1,0,2,0,NaN
1,433,1,0,1,0,NaN
1,433,1,0,1,1,483
1,435,2,0,1,3,NaN
1,435,2,0,1,3,NaN
1,436,1,0,2,0,NaN
1,436,1,0,2,0,NaN
1,436,1,0,1,1,451
1,437,1,0,2,0,NaN
1,437,1,0,1,1,574
1,438,1,0,2,3,NaN
1,439,2,0,2,0,NaN
1,439,2,0,2,1,442
1,441,1,0,1,1,483
1,445,2,0,1,3,NaN
1,446,1,0,1,0,NaN
1,446,1,0,1,1,476
1,447,2,0,2,1,467
1,447,2,0,1,0,NaN
1,447,2,0,1,0,NaN
1,448,2,0,1,3,NaN
1,451,1,0,1,1,491
1,451,1,0,2,0,NaN
1,455,1,0,2,3,NaN
1,455,1,0,2,3,NaN
1,456,2,0,1,0,NaN
1,456,2,0,2,1,533
1,457,1,0,2,3,NaN
1,457,1,0,2,3,NaN
1,458,2,0,2,1,433
1,458,2,0,1,0,NaN
1,458,2,0,1,0,NaN
1,459,1,0,1,1,458
1,460,2,0,2,0,NaN
1,460,2,0,1,2,542
1,461,1,0,1,1,451
1,461,1,0,2,0,NaN
1,462,2,0,1,0,NaN
1,462,2,0,2,1,526
1,464,1,0,1,0,NaN
1,464,1,0,1,1,466
1,464,1,0,2,0,NaN
1,465,1,0,2,0,NaN
1,465,1,0,2,0,NaN
1,465,1,0,1,1,450
1,467,1,0,1,0,NaN
1,467,1,0,1,1,417
1,467,1,0,2,0,NaN
1,468,1,0,2,3,NaN
1,468,1,0,2,3,NaN
1,469,1,0,1,0,NaN
1,469,1,0,1,1,425
1,469,1,0,2,0,NaN
1,470,1,0,1,0,NaN
1,470,1,0,1,1,459
1,471,2,0,2,1,451
1,471,2,0,1,0,NaN
1,473,1,0,1,0,NaN
1,473,1,0,1,1,533
1,476,2,0,1,0,NaN
1,476,2,0,2,1,625
1,478,2,0,1,3,NaN
1,478,2,0,1,3,NaN
1,481,2,0,2,1,575
1,482,1,0,2,3,NaN
1,482,1,0,2,3,NaN
1,483,2,0,2,0,NaN
1,483,2,0,2,1,517
1,484,2,0,2,1,442
1,484,2,0,1,0,NaN
1,485,1,0,1,1,500
1,485,1,0,2,0,NaN
1,485,1,0,2,0,NaN
1,486,2,0,1,0,NaN
1,486,2,0,2,1,524
1,486,2,0,1,0,NaN
1,487,1,0,1,0,NaN
1,487,1,0,2,0,NaN
1,487,1,0,1,1,416
1,489,2,0,2,0,NaN
1,489,2,0,2,1,458
1,491,1,0,1,0,NaN
1,491,1,0,1,0,NaN
1,491,1,0,1,1,384
1,492,2,0,2,0,NaN
1,492,2,0,1,0,NaN
1,492,2,0,2,1,467
1,493,1,0,1,1,517
1,493,1,0,2,0,NaN
1,494,2,0,1,3,NaN
1,495,2,0,2,0,NaN
1,495,2,0,2,1,534
1,496,2,0,1,3,NaN
1,497,2,0,2,0,NaN
1,497,2,0,2,1,459
1,498,1,0,2,3,NaN
1,500,2,0,2,1,475
1,501,1,0,1,1,641
1,503,1,0,2,3,NaN
1,503,1,0,2,3,NaN
1,503,1,0,2,3,NaN
1,505,1,0,1,0,NaN
1,505,1,0,1,1,408
1,508,2,0,1,3,NaN
1,508,2,0,1,3,NaN
1,508,2,0,1,3,NaN
1,512,2,0,1,0,NaN
1,512,2,0,2,0,NaN
1,512,2,0,2,1,483
1,514,2,0,1,3,NaN
1,514,2,0,1,3,NaN
1,515,2,0,1,0,NaN
1,515,2,0,2,1,450
1,518,1,0,2,3,NaN
1,520,2,0,1,3,NaN
1,521,2,0,1,0,NaN
1,521,2,0,2,0,NaN
1,521,2,0,2,1,516
1,523,2,0,2,1,459
1,524,2,0,2,0,NaN
1,524,2,0,2,1,475
1,525,2,0,1,3,NaN
1,527,2,0,1,0,NaN
1,527,2,0,2,0,NaN
1,527,2,0,2,1,416
1,531,1,0,1,1,584
1,532,2,0,1,0,NaN
1,532,2,0,2,1,542
1,534,2,0,2,0,NaN
1,534,2,0,2,1,483
1,534,2,0,1,0,NaN
1,535,1,0,1,0,NaN
1,535,1,0,2,0,NaN
1,535,1,0,1,1,492
1,536,1,0,1,1,516
1,537,1,0,2,0,NaN
1,537,1,0,1,1,483
1,538,2,0,2,0,NaN
1,538,2,0,2,1,432
1,538,2,0,1,0,NaN
1,541,1,0,2,0,NaN
1,541,1,0,1,1,516
1,542,2,0,1,3,NaN
1,542,2,0,1,3,NaN
1,544,2,0,2,0,NaN
1,544,2,0,2,1,592
1,545,2,0,2,0,NaN
1,545,2,0,2,1,625
1,546,2,0,1,3,NaN
1,546,2,0,1,3,NaN
1,546,2,0,1,3,NaN
1,552,1,0,2,0,NaN
1,552,1,0,1,1,458
1,553,1,0,2,0,NaN
1,553,1,0,1,1,491
1,554,1,0,2,0,NaN
1,554,1,0,1,0,NaN
1,554,1,0,1,1,500
1,556,2,0,1,3,NaN
1,556,2,0,1,3,NaN
1,559,2,0,1,3,NaN
1,561,2,0,1,3,NaN
1,563,1,0,2,0,NaN
1,563,1,0,2,0,NaN
1,563,1,0,1,1,424
1,566,1,0,1,1,467
1,567,2,0,1,0,NaN
1,567,2,0,2,1,484
1,568,2,0,2,1,616
1,568,2,0,1,0,NaN
1,571,2,0,2,0,NaN
1,571,2,0,2,1,467
1,571,2,0,1,0,NaN
1,572,1,0,2,3,NaN
1,572,1,0,2,3,NaN
1,573,1,0,2,3,NaN
1,575,2,0,1,3,NaN
1,577,1,0,1,1,509
1,578,1,0,1,0,NaN
1,578,1,0,2,0,NaN
1,578,1,0,1,1,508
1,579,1,0,1,1,475
1,579,1,0,2,0,NaN
1,580,1,0,2,0,NaN
1,580,1,0,1,1,500
1,582,2,0,1,0,NaN
1,582,2,0,1,0,NaN
1,582,2,0,2,1,384
1,584,1,0,1,1,516
1,585,1,0,1,1,535
1,586,2,0,1,3,NaN
1,586,2,0,1,3,NaN
1,587,2,0,2,1,450
1,591,2,0,1,3,NaN
1,595,1,0,2,3,NaN
1,596,1,0,2,0,NaN
1,596,1,0,1,1,425
1,596,1,0,2,0,NaN
1,597,1,0,2,3,NaN
1,597,1,0,2,3,NaN
1,598,1,0,2,3,NaN
1,598,1,0,2,3,NaN
1,599,1,0,1,1,583
1,600,2,0,1,3,NaN
3,2,1,0,1,1,500
3,5,1,0,1,0,NaN
3,5,1,0,1,1,583
3,6,2,0,2,0,NaN
3,6,2,0,2,1,509
3,8,2,0,2,1,575
3,10,2,0,1,2,517
3,11,1,0,1,1,451
3,12,1,0,2,3,NaN
3,14,1,0,1,0,NaN
3,14,1,0,1,1,451
3,15,2,0,1,2,608
3,15,2,0,1,0,NaN
3,16,1,0,1,0,NaN
3,16,1,0,2,2,616
3,21,1,0,2,0,NaN
3,21,1,0,1,1,375
3,21,1,0,2,0,NaN
3,23,2,0,1,0,NaN
3,23,2,0,2,1,450
3,24,1,0,1,0,NaN
3,24,1,0,1,1,600
3,25,1,0,1,1,533
3,25,1,0,2,0,NaN
3,25,1,0,2,0,NaN
3,26,2,0,2,0,NaN
3,32,2,0,1,0,NaN
3,32,2,0,2,1,524
3,32,2,0,1,0,NaN
3,33,2,0,1,0,NaN
3,33,2,0,1,0,NaN
3,34,2,0,1,3,NaN
3,34,2,0,1,3,NaN
3,36,1,0,2,0,NaN
3,36,1,0,1,1,525
3,38,2,0,2,0,NaN
3,38,2,0,1,2,417
3,40,1,0,2,0,NaN
3,40,1,0,2,0,NaN
3,40,1,0,1,1,475
3,43,2,0,2,0,NaN
3,43,2,0,2,1,592
3,44,1,0,2,3,NaN
3,46,2,0,2,0,NaN
3,46,2,0,2,1,591
3,46,2,0,1,0,NaN
3,47,2,0,1,0,NaN
3,47,2,0,2,0,NaN
3,47,2,0,2,1,500
3,49,2,0,2,0,NaN
3,49,2,0,2,1,583
3,54,2,0,1,0,NaN
3,54,2,0,2,0,NaN
3,54,2,0,2,1,507
3,55,1,0,1,1,492
3,56,2,0,1,0,NaN
3,56,2,0,2,1,425
3,59,1,0,1,1,459
3,59,1,0,2,0,NaN
3,59,1,0,2,0,NaN
3,60,2,0,2,1,725
3,61,2,0,1,2,758
3,63,1,0,2,3,NaN
3,63,1,0,2,3,NaN
3,65,2,0,1,3,NaN
3,66,2,0,2,0,NaN
3,66,2,0,2,0,NaN
3,66,2,0,2,1,583
3,67,1,0,2,3,NaN
3,68,1,0,2,0,NaN
3,68,1,0,1,0,NaN
3,68,1,0,1,1,458
3,69,1,0,1,0,NaN
3,69,1,0,1,1,642
3,69,1,0,2,0,NaN
3,70,2,0,2,1,542
3,71,1,0,2,3,NaN
3,71,1,0,2,3,NaN
3,71,1,0,2,3,NaN
3,72,1,0,1,0,NaN
3,72,1,0,1,1,617
3,73,1,0,2,0,NaN
3,73,1,0,1,0,NaN
3,73,1,0,1,1,525
3,77,2,0,2,1,442
3,78,1,0,1,0,NaN
3,78,1,0,1,1,567
3,79,1,0,2,3,NaN
3,79,1,0,2,3,NaN
3,80,1,0,1,1,566
3,83,2,0,1,3,NaN
3,84,1,0,1,1,633
3,84,1,0,2,0,NaN
3,87,1,0,2,3,NaN
3,90,2,0,1,3,NaN
3,91,2,0,1,0,NaN
3,91,2,0,2,1,642
3,94,2,0,2,1,701
3,96,1,0,2,3,NaN
3,99,2,0,1,0,NaN
3,99,2,0,2,1,475
3,99,2,0,2,0,NaN
3,100,1,0,1,1,774
3,100,1,0,2,0,NaN
3,103,2,0,1,3,NaN
3,106,1,0,2,0,NaN
3,106,1,0,1,1,583
3,106,1,0,1,0,NaN
3,107,1,0,2,3,NaN
3,107,1,0,2,3,NaN
3,108,2,0,1,3,NaN
3,108,2,0,1,3,NaN
3,109,2,0,1,3,NaN
3,109,2,0,1,3,NaN
3,111,1,0,2,0,NaN
3,111,1,0,1,1,516
3,112,2,0,1,3,NaN
3,112,2,0,1,3,NaN
3,112,2,0,1,3,NaN
3,113,2,0,2,1,675
3,114,2,0,1,0,NaN
3,114,2,0,2,1,634
3,115,2,0,2,0,NaN
3,115,2,0,2,1,567
3,116,1,0,2,3,NaN
3,117,2,0,2,1,483
3,118,2,0,1,2,766
3,119,2,0,1,0,NaN
3,119,2,0,2,1,550
3,124,1,0,2,3,NaN
3,125,1,0,1,1,551
3,126,2,0,2,0,NaN
3,126,2,0,2,1,434
3,127,2,0,2,1,584
3,127,2,0,1,0,NaN
3,128,1,0,2,0,NaN
3,128,1,0,1,1,459
3,129,2,0,1,0,NaN
3,129,2,0,1,0,NaN
3,129,2,0,2,1,792
3,130,2,0,1,0,NaN
3,130,2,0,2,0,NaN
3,130,2,0,2,1,575
3,131,2,0,1,0,NaN
3,131,2,0,1,0,NaN
3,131,2,0,2,1,484
3,132,1,0,1,1,434
3,132,1,0,2,0,NaN
3,133,1,0,2,0,NaN
3,133,1,0,1,1,600
3,135,2,0,1,3,NaN
3,135,2,0,2,0,NaN
3,135,2,0,1,3,NaN
3,136,2,0,1,0,NaN
3,136,2,0,1,0,NaN
3,136,2,0,2,1,459
3,137,2,0,2,1,658
3,139,1,0,2,3,NaN
3,139,1,0,2,3,NaN
3,139,1,0,2,3,NaN
3,140,1,0,2,3,NaN
3,141,1,0,2,3,NaN
3,141,1,0,2,3,NaN
3,143,2,0,2,0,NaN
3,143,2,0,2,1,433
3,145,1,0,2,0,NaN
3,145,1,0,1,1,684
3,146,2,0,1,3,NaN
3,149,2,0,1,3,NaN
3,149,2,0,1,3,NaN
3,150,1,0,2,3,NaN
3,151,1,0,1,0,NaN
3,151,1,0,1,1,825
3,151,1,0,2,0,NaN
3,152,1,0,2,0,NaN
3,152,1,0,1,1,625
3,154,1,0,1,0,NaN
3,154,1,0,1,0,NaN
3,154,1,0,1,1,516
3,155,1,0,2,0,NaN
3,155,1,0,1,1,441
3,155,1,0,2,0,NaN
3,156,1,0,1,1,474
3,157,1,0,1,0,NaN
3,157,1,0,1,0,NaN
3,157,1,0,1,1,425
3,158,2,0,2,0,NaN
3,158,2,0,1,2,841
3,158,2,0,1,0,NaN
3,159,1,0,2,0,NaN
3,159,1,0,1,0,NaN
3,159,1,0,1,1,566
3,160,2,0,1,0,NaN
3,160,2,0,2,1,567
3,161,1,0,1,0,NaN
3,161,1,0,2,0,NaN
3,161,1,0,1,1,442
3,163,2,0,2,1,417
3,165,2,0,2,1,550
3,166,1,0,1,1,666
3,167,2,0,1,0,NaN
3,167,2,0,2,1,500
3,167,2,0,1,0,NaN
3,169,2,0,2,1,517
3,169,2,0,1,0,NaN
3,169,2,0,1,0,NaN
3,175,2,0,1,0,NaN
3,175,2,0,1,0,NaN
3,175,2,0,2,1,432
3,176,2,0,1,0,NaN
3,176,2,0,2,0,NaN
3,176,2,0,2,1,533
3,179,2,0,2,0,NaN
3,179,2,0,2,1,417
3,181,1,0,2,0,NaN
3,181,1,0,1,1,601
3,181,1,0,2,0,NaN
3,182,2,0,1,0,NaN
3,182,2,0,2,1,476
3,182,2,0,1,0,NaN
3,184,1,0,2,3,NaN
3,184,1,0,2,3,NaN
3,184,1,0,2,3,NaN
3,186,2,0,2,0,NaN
3,186,2,0,2,1,500
3,186,2,0,1,0,NaN
3,188,1,0,2,3,NaN
3,189,2,0,1,2,725
3,189,2,0,1,0,NaN
3,190,1,0,1,0,NaN
3,190,1,0,1,1,659
3,192,1,0,2,3,NaN
3,192,1,0,2,3,NaN
3,195,1,0,1,0,NaN
3,195,1,0,2,0,NaN
3,195,1,0,1,1,575
3,197,1,0,2,3,NaN
3,198,1,0,1,1,733
3,200,1,0,1,0,NaN
3,200,1,0,1,1,491
3,202,2,0,1,0,NaN
3,202,2,0,1,0,NaN
3,202,2,0,2,1,709
3,203,2,0,1,0,NaN
3,203,2,0,2,0,NaN
3,203,2,0,2,1,483
3,206,1,0,2,0,NaN
3,206,1,1,1,1,458
3,206,1,0,2,0,NaN
3,207,2,1,2,0,NaN
3,207,2,0,2,1,500
3,208,1,0,2,3,NaN
3,208,1,0,2,3,NaN
3,208,1,0,2,3,NaN
3,210,2,0,1,0,NaN
3,210,2,0,2,1,508
3,213,1,0,2,3,NaN
3,213,1,0,2,3,NaN
3,215,1,0,1,0,NaN
3,215,1,1,1,0,NaN
3,215,1,1,1,1,542
3,217,1,1,1,1,667
3,221,2,0,2,0,NaN
3,221,2,0,1,0,NaN
3,221,2,0,2,1,458
3,222,1,1,1,1,516
3,222,1,0,2,0,NaN
3,222,1,0,2,0,NaN
3,224,1,0,2,3,NaN
3,226,1,1,1,0,NaN
3,226,1,1,1,1,526
3,226,1,0,2,0,NaN
3,227,2,0,2,1,441
3,227,2,0,1,0,NaN
3,229,1,0,2,0,NaN
3,229,1,1,1,1,526
3,230,2,1,2,0,NaN
3,230,2,0,1,0,NaN
3,230,2,1,2,1,625
3,231,2,0,1,3,NaN
3,232,1,1,1,0,NaN
3,232,1,0,1,1,518
3,232,1,0,2,0,NaN
3,236,2,0,2,1,674
3,236,2,0,1,0,NaN
3,237,2,0,1,0,NaN
3,237,2,0,2,1,483
3,239,1,1,1,1,649
3,239,1,0,2,0,NaN
3,240,1,0,2,0,NaN
3,240,1,0,1,1,467
3,241,1,1,1,1,617
3,242,1,1,1,0,NaN
3,242,1,0,2,0,NaN
3,242,1,1,1,1,458
3,244,1,1,1,0,NaN
3,244,1,1,1,0,NaN
3,244,1,0,1,1,474
3,247,2,0,1,0,NaN
3,247,2,0,2,1,459
3,248,2,0,2,0,NaN
3,248,2,0,2,1,566
3,248,2,0,1,0,NaN
3,250,2,0,1,0,NaN
3,250,2,0,2,1,734
3,251,2,0,2,0,NaN
3,251,2,1,2,1,625
3,251,2,0,1,0,NaN
3,253,1,0,2,3,NaN
3,255,1,0,2,3,NaN
3,255,1,0,2,3,NaN
3,257,1,0,2,3,NaN
3,257,1,0,2,3,NaN
3,258,2,0,2,0,NaN
3,258,2,0,1,2,509
3,259,2,0,2,1,833
3,259,2,0,1,0,NaN
3,261,2,0,1,3,NaN
3,262,2,0,2,0,NaN
3,262,2,0,1,2,542
3,263,1,0,2,0,NaN
3,263,1,1,1,1,484
3,264,2,1,2,0,NaN
3,264,2,0,1,0,NaN
3,264,2,0,2,1,493
3,265,2,0,2,0,NaN
3,265,2,0,2,1,484
3,267,1,1,1,1,483
3,268,2,0,1,2,666
3,269,1,1,1,0,NaN
3,269,1,0,2,0,NaN
3,269,1,1,1,1,541
3,273,2,0,1,0,NaN
3,273,2,0,1,0,NaN
3,273,2,0,2,1,408
3,275,1,0,2,0,NaN
3,275,1,1,1,1,533
3,276,2,0,1,0,NaN
3,276,2,0,2,1,542
3,276,2,1,2,0,NaN
3,277,2,0,1,3,NaN
3,282,2,0,1,3,NaN
3,283,2,1,2,1,466
3,284,1,1,1,1,475
3,286,2,0,1,3,NaN
3,287,1,0,2,3,NaN
3,288,1,0,2,3,NaN
3,289,1,0,2,0,NaN
3,289,1,1,1,0,NaN
3,289,1,1,1,1,683
3,292,1,1,1,1,750
3,295,2,0,1,3,NaN
3,296,1,1,1,0,NaN
3,296,1,1,1,1,467
3,297,2,0,1,3,NaN
3,297,2,0,1,3,NaN
3,298,1,1,1,1,641
3,299,1,0,1,0,NaN
3,299,1,0,2,3,NaN
3,299,1,0,1,0,NaN
3,300,2,0,1,0,NaN
3,300,2,0,2,1,541
3,301,2,0,1,0,NaN
3,301,2,1,2,1,458
3,302,2,0,1,0,NaN
3,302,2,1,2,1,533
3,303,2,0,1,0,NaN
3,303,2,0,1,0,NaN
3,303,2,0,2,1,526
3,304,1,0,2,3,NaN
3,305,1,0,1,0,NaN
3,305,1,0,2,0,NaN
3,305,1,1,1,1,559
3,308,2,0,1,3,NaN
3,308,2,0,1,3,NaN
3,310,1,1,1,1,666
3,312,1,1,1,1,533
3,312,1,0,2,0,NaN
3,312,1,0,2,0,NaN
3,313,2,0,2,1,534
3,314,2,0,1,0,NaN
3,314,2,0,2,1,517
3,315,1,1,1,0,NaN
3,315,1,1,1,1,566
3,316,1,0,1,1,634
3,317,1,1,1,0,NaN
3,317,1,1,1,1,701
3,318,1,0,2,0,NaN
3,318,1,0,2,0,NaN
3,318,1,1,1,1,425
3,320,1,0,2,3,NaN
3,320,1,0,2,3,NaN
3,320,1,0,2,3,NaN
3,321,1,1,1,0,NaN
3,321,1,0,1,1,550
3,322,1,1,1,1,634
3,322,1,0,2,0,NaN
3,322,1,0,2,0,NaN
3,323,1,0,2,3,NaN
3,323,1,0,2,3,NaN
3,324,2,0,2,1,642
3,325,2,0,1,0,NaN
3,325,2,0,1,0,NaN
3,326,1,0,2,3,NaN
3,326,1,0,2,3,NaN
3,327,2,0,1,3,NaN
3,327,2,0,1,3,NaN
3,328,1,1,1,0,NaN
3,328,1,1,1,0,NaN
3,328,1,1,1,1,458
3,333,1,0,1,1,475
3,333,1,0,2,0,NaN
3,334,1,0,2,3,NaN
3,335,2,0,1,3,NaN
3,335,2,0,1,3,NaN
3,335,2,0,1,3,NaN
3,336,2,0,2,1,551
3,336,2,0,1,0,NaN
3,336,2,0,1,0,NaN
3,338,1,0,2,3,NaN
3,338,1,0,2,3,NaN
3,339,1,0,1,1,525
3,339,1,0,2,0,NaN
3,340,2,0,2,0,NaN
3,340,2,0,2,1,433
3,343,2,0,2,0,NaN
3,343,2,0,2,1,642
3,343,2,0,1,0,NaN
3,346,2,0,1,3,NaN
3,347,2,0,2,1,691
3,348,2,0,2,0,NaN
3,348,2,0,2,1,525
3,351,2,0,2,0,NaN
3,351,2,1,2,1,742
3,351,2,0,1,0,NaN
3,352,1,1,1,1,434
3,355,2,0,2,1,500
3,356,2,0,1,0,NaN
3,356,2,0,2,1,500
3,356,2,0,1,0,NaN
3,359,1,0,2,0,NaN
3,359,1,1,1,1,732
3,360,2,0,2,1,841
3,361,2,0,2,1,592
3,361,2,0,2,0,NaN
3,362,2,0,2,0,NaN
3,362,2,0,2,0,NaN
3,362,2,0,2,1,507
3,364,2,0,1,3,NaN
3,366,1,0,2,3,NaN
3,366,1,0,2,3,NaN
3,366,1,0,2,3,NaN
3,368,1,1,1,0,NaN
3,368,1,1,1,1,458
3,369,1,0,2,0,NaN
3,369,1,1,1,1,575
3,370,1,0,2,3,NaN
3,371,1,0,2,0,NaN
3,371,1,1,1,1,516
3,374,1,0,2,3,NaN
3,374,1,0,2,3,NaN
3,375,2,0,1,3,NaN
3,375,2,0,1,3,NaN
3,375,2,0,1,3,NaN
3,378,2,0,1,0,NaN
3,378,2,0,2,1,650
3,381,2,0,1,0,NaN
3,381,2,0,2,1,491
3,384,2,0,1,0,NaN
3,384,2,1,2,1,584
3,388,1,0,1,1,524
3,389,1,1,1,1,467
3,391,2,0,1,3,NaN
3,393,2,0,2,1,599
3,393,2,0,1,0,NaN
3,395,1,0,2,0,NaN
3,395,1,1,1,1,533
3,395,1,0,2,0,NaN
3,397,2,1,2,1,542
3,399,1,0,2,3,NaN
3,401,1,0,1,1,583
3,401,1,0,2,0,NaN
3,403,2,0,1,3,NaN
3,406,1,0,2,3,NaN
3,411,2,0,2,1,500
3,412,2,0,2,1,733
3,412,2,0,1,0,NaN
3,413,2,0,1,0,NaN
3,413,2,0,2,0,NaN
3,413,2,0,2,1,576
3,414,1,0,1,1,509
3,414,1,0,2,0,NaN
3,415,1,0,2,3,NaN
3,417,2,0,1,3,NaN
3,418,2,0,2,1,809
3,420,2,0,2,1,641
3,421,2,0,1,3,NaN
3,421,2,0,1,3,NaN
3,422,2,0,2,0,NaN
3,422,2,0,2,1,725
3,423,1,0,1,0,NaN
3,423,1,0,1,0,NaN
3,423,1,0,1,1,500
3,424,1,0,2,0,NaN
3,424,1,0,1,1,576
3,424,1,0,2,0,NaN
3,427,1,0,1,0,NaN
3,427,1,0,2,0,NaN
3,427,1,0,1,1,401
3,429,1,0,2,3,NaN
3,429,1,0,2,3,NaN
3,430,2,0,1,3,NaN
3,433,2,0,2,0,NaN
3,433,2,0,2,1,559
3,435,1,0,1,0,NaN
3,435,1,0,1,1,525
3,437,1,0,2,3,NaN
3,437,1,0,2,3,NaN
3,438,1,0,1,0,NaN
3,438,1,0,1,0,NaN
3,438,1,0,1,1,466
3,439,2,0,1,0,NaN
3,439,2,0,1,2,542
3,439,2,0,2,0,NaN
3,440,2,0,1,2,525
3,442,2,0,2,0,NaN
3,442,2,0,2,1,442
3,443,2,0,1,0,NaN
3,443,2,0,2,0,NaN
3,443,2,0,2,1,700
3,445,1,0,2,3,NaN
3,445,1,0,2,3,NaN
3,446,1,0,2,3,NaN
3,446,1,0,1,0,NaN
3,447,1,0,1,1,807
3,447,1,0,2,0,NaN
3,447,1,0,2,0,NaN
3,448,2,0,2,0,NaN
3,448,2,0,2,1,458
3,449,1,0,2,3,NaN
3,450,1,0,2,3,NaN
3,451,2,0,1,3,NaN
3,451,2,0,1,3,NaN
3,452,1,0,1,1,608
3,452,1,0,2,0,NaN
3,455,1,0,1,1,750
3,456,1,0,1,1,658
3,456,1,0,2,0,NaN
3,457,2,0,2,0,NaN
3,457,2,0,2,0,NaN
3,458,2,0,2,0,NaN
3,458,2,0,1,0,NaN
3,458,2,0,1,2,633
3,459,2,0,1,0,NaN
3,459,2,0,2,1,466
3,461,2,0,1,3,NaN
3,463,2,0,1,0,NaN
3,463,2,0,2,1,459
3,464,2,0,2,1,608
3,464,2,0,1,0,NaN
3,465,1,0,1,0,NaN
3,465,1,0,1,0,NaN
3,465,1,0,1,1,476
3,466,2,0,2,1,516
3,467,1,0,1,0,NaN
3,467,1,0,1,1,458
3,469,2,0,1,0,NaN
3,469,2,0,1,0,NaN
3,469,2,0,1,0,NaN
3,470,1,0,2,0,NaN
3,470,1,0,1,1,484
3,471,2,0,2,1,558
3,471,2,0,1,0,NaN
3,473,1,0,1,1,650
3,476,1,0,1,1,550
3,478,1,0,2,0,NaN
3,478,1,0,1,1,409
3,478,1,0,1,0,NaN
3,482,1,0,2,3,NaN
3,484,2,0,1,3,NaN
3,484,2,0,1,3,NaN
3,484,2,0,1,3,NaN
3,485,2,0,2,0,NaN
3,485,2,0,2,0,NaN
3,485,2,0,2,1,474
3,486,2,0,2,0,NaN
3,486,2,0,2,1,492
3,488,2,0,2,0,NaN
3,488,2,0,2,0,NaN
3,488,2,0,2,1,492
3,489,1,0,2,0,NaN
3,489,1,0,1,1,783
3,491,1,0,2,0,NaN
3,491,1,0,1,1,384
3,492,1,0,2,3,NaN
3,492,1,0,2,3,NaN
3,494,2,0,1,3,NaN
3,494,2,0,1,3,NaN
3,494,2,0,1,3,NaN
3,496,1,0,2,3,NaN
3,496,1,0,2,3,NaN
3,498,1,0,2,3,NaN
3,498,1,0,2,3,NaN
3,499,2,0,2,0,NaN
3,499,2,0,2,1,467
3,500,2,0,1,2,591
3,503,1,0,1,0,NaN
3,503,1,0,1,1,391
3,506,1,0,2,0,NaN
3,506,1,0,1,1,450
3,507,2,0,1,0,NaN
3,507,2,0,2,1,417
3,508,1,0,1,1,525
3,508,1,0,2,0,NaN
3,508,1,0,2,0,NaN
3,510,2,0,1,3,NaN
3,510,2,0,1,3,NaN
3,510,2,0,1,3,NaN
3,511,2,0,2,1,700
3,511,2,0,1,0,NaN
3,512,1,0,1,1,483
3,513,1,0,1,1,467
3,516,1,0,1,1,559
3,519,1,0,2,3,NaN
3,519,1,0,2,3,NaN
3,520,1,0,1,0,NaN
3,520,1,0,1,1,833
3,520,1,0,2,0,NaN
3,522,2,0,1,3,NaN
3,522,2,0,1,3,NaN
3,523,1,0,2,3,NaN
3,523,1,0,2,3,NaN
3,525,1,0,1,0,NaN
3,525,1,0,1,1,542
3,525,1,0,2,0,NaN
3,526,1,0,1,0,NaN
3,527,2,0,2,1,575
3,527,2,0,1,0,NaN
3,527,2,0,1,0,NaN
3,529,2,0,1,0,NaN
3,529,2,0,2,1,492
3,530,1,0,2,0,NaN
3,530,1,0,2,0,NaN
3,530,1,0,1,1,525
3,531,2,0,2,0,NaN
3,531,2,0,2,1,451
3,532,1,0,2,3,NaN
3,533,2,0,2,1,641
3,533,2,0,1,0,NaN
3,534,1,0,2,0,NaN
3,534,1,0,1,1,484
3,534,1,0,1,0,NaN
3,535,1,0,1,0,NaN
3,535,1,0,1,1,525
3,537,2,0,2,1,808
3,540,2,0,1,3,NaN
3,541,2,0,1,0,NaN
3,541,2,0,2,1,399
3,544,1,0,1,0,NaN
3,545,1,0,1,0,NaN
3,545,1,0,2,2,458
3,548,2,0,2,1,441
3,548,2,0,1,0,NaN
3,549,2,0,1,0,NaN
3,549,2,0,1,2,508
3,550,2,0,2,1,466
3,550,2,0,1,0,NaN
3,550,2,0,2,0,NaN
3,551,2,0,1,2,508
3,555,1,0,1,1,533
3,555,1,0,2,0,NaN
3,555,1,0,2,0,NaN
3,558,2,0,2,0,NaN
3,558,2,0,2,1,517
3,558,2,0,1,0,NaN
3,562,1,0,1,0,NaN
3,562,1,0,2,2,734
3,569,2,0,1,3,NaN
3,571,2,0,1,3,NaN
3,571,2,0,1,3,NaN
3,572,1,0,1,0,NaN
3,574,2,0,2,0,NaN
3,574,2,0,2,0,NaN
3,574,2,0,2,1,408
3,576,1,0,1,1,542
3,576,1,0,2,0,NaN
3,577,2,0,2,0,NaN
3,577,2,0,2,1,466
3,578,2,0,2,1,542
3,579,2,0,1,0,NaN
3,579,2,0,1,2,408
3,581,1,0,2,0,NaN
3,581,1,0,2,2,517
3,582,1,0,2,0,NaN
3,582,1,0,2,0,NaN
3,582,1,0,1,1,517
3,583,1,0,2,3,NaN
3,583,1,0,2,3,NaN
3,583,1,0,2,3,NaN
3,584,1,0,1,1,450
3,584,1,0,2,0,NaN
3,588,1,0,1,0,NaN
3,588,1,0,2,0,NaN
3,588,1,0,1,1,442
3,590,2,0,1,3,NaN
3,590,2,0,1,3,NaN
3,592,2,0,1,3,NaN
3,593,1,0,2,3,NaN
3,594,1,0,2,0,NaN
3,594,1,0,1,1,509
3,595,2,0,2,0,NaN
3,595,2,0,2,0,NaN
3,595,2,0,1,2,432
3,597,1,0,1,0,NaN
3,597,1,0,1,1,568
3,598,2,0,2,0,NaN
3,598,2,0,1,0,NaN
3,598,2,0,2,1,667
3,600,2,0,1,0,NaN
3,600,2,0,2,1,458
4,2,2,0,2,1,549
4,3,2,0,1,3,NaN
4,4,2,0,2,1,492
4,6,1,0,2,2,466
4,6,1,0,2,0,NaN
4,7,2,0,2,0,NaN
4,7,2,0,1,0,NaN
4,7,2,0,2,1,433
4,9,2,0,1,3,NaN
4,9,2,0,1,3,NaN
4,9,2,0,1,3,NaN
4,11,1,0,2,3,NaN
4,11,1,0,2,3,NaN
4,13,2,0,2,1,634
4,13,2,0,1,0,NaN
4,13,2,0,1,0,NaN
4,15,1,0,2,3,NaN
4,16,1,0,1,1,650
4,18,1,0,1,1,750
4,18,1,0,2,0,NaN
4,19,1,0,2,3,NaN
4,20,2,0,1,0,NaN
4,20,2,0,1,0,NaN
4,20,2,0,2,1,541
4,21,1,0,1,0,NaN
4,21,1,0,2,3,NaN
4,22,2,0,1,3,NaN
4,23,1,0,2,0,NaN
4,23,1,0,2,0,NaN
4,23,1,0,1,1,558
4,27,1,0,1,0,NaN
4,27,1,0,1,1,649
4,27,1,0,1,0,NaN
4,28,2,0,2,0,NaN
4,28,2,0,2,1,375
4,31,1,0,1,0,NaN
4,32,2,0,2,1,492
4,32,2,0,1,0,NaN
4,32,2,0,1,0,NaN
4,33,1,0,1,0,NaN
4,34,1,0,2,3,NaN
4,34,1,0,2,3,NaN
4,34,1,0,2,3,NaN
4,36,2,0,2,0,NaN
4,36,2,0,1,2,709
4,37,1,0,2,3,NaN
4,37,1,0,2,3,NaN
4,40,1,0,1,0,NaN
4,40,1,0,2,2,449
4,41,2,0,2,1,683
4,41,2,0,1,0,NaN
4,42,2,0,1,3,NaN
4,43,1,0,2,0,NaN
4,43,1,0,1,1,659
4,44,1,0,1,0,NaN
4,47,1,0,1,0,NaN
4,47,1,0,2,2,400
4,51,2,0,2,1,650
4,51,2,0,1,0,NaN
4,54,2,0,1,3,NaN
4,55,2,0,2,0,NaN
4,55,2,0,1,0,NaN
4,55,2,0,2,1,516
4,56,1,0,1,0,NaN
4,56,1,0,2,0,NaN
4,56,1,0,1,1,675
4,57,2,0,1,0,NaN
4,57,2,0,2,1,608
4,57,2,0,1,0,NaN
4,60,1,0,2,3,NaN
4,62,2,0,1,3,NaN
4,66,2,0,2,0,NaN
4,66,2,0,2,1,459
4,70,2,0,1,0,NaN
4,70,2,0,2,1,575
4,71,2,0,1,0,NaN
4,71,2,0,2,0,NaN
4,71,2,0,2,1,425
4,73,1,0,1,0,NaN
4,73,1,0,2,2,491
4,74,2,0,2,0,NaN
4,74,2,0,2,0,NaN
4,74,2,0,2,1,408
4,75,2,0,1,3,NaN
4,75,2,0,2,0,NaN
4,76,2,0,1,3,NaN
4,76,2,0,1,3,NaN
4,79,1,0,1,0,NaN
4,79,1,0,2,2,517
4,79,1,0,2,0,NaN
4,82,2,0,1,3,NaN
4,83,1,0,2,0,NaN
4,83,1,0,1,1,567
4,85,1,0,2,3,NaN
4,85,1,0,2,3,NaN
4,85,1,0,2,3,NaN
4,86,2,0,1,3,NaN
4,87,1,0,2,0,NaN
4,87,1,0,1,1,634
4,87,1,0,2,0,NaN
4,89,1,0,1,0,NaN
4,89,1,0,2,2,568
4,89,1,0,2,0,NaN
4,92,2,0,1,3,NaN
4,92,2,0,2,0,NaN
4,95,1,0,1,0,NaN
4,95,1,0,1,0,NaN
4,95,1,0,1,1,275
4,96,2,0,1,0,NaN
4,96,2,0,2,1,450
4,96,2,0,1,0,NaN
4,97,1,0,2,0,NaN
4,97,1,0,1,0,NaN
4,97,1,0,1,1,458
4,98,2,0,2,0,NaN
4,98,2,0,1,0,NaN
4,98,2,0,2,1,391
4,99,1,0,1,0,NaN
4,99,1,0,2,0,NaN
4,99,1,0,2,2,441
4,100,2,0,1,0,NaN
4,100,2,0,2,1,566
4,101,2,0,2,0,NaN
4,101,2,0,1,2,375
4,102,1,0,1,0,NaN
4,102,1,0,1,1,559
4,106,1,0,2,0,NaN
4,106,1,0,1,1,609
4,109,2,0,2,1,500
4,109,2,0,1,0,NaN
4,111,2,0,2,0,NaN
4,111,2,0,2,1,625
4,112,2,0,2,0,NaN
4,112,2,0,2,1,475
4,116,2,0,1,0,NaN
4,116,2,0,2,1,517
4,120,2,0,2,0,NaN
4,120,2,0,2,1,467
4,122,1,0,1,1,625
4,122,1,0,2,0,NaN
4,123,2,0,2,0,NaN
4,125,1,0,2,3,NaN
4,126,2,0,2,1,675
4,128,1,0,1,1,575
4,130,2,0,1,3,NaN
4,130,2,0,1,3,NaN
4,132,1,0,1,0,NaN
4,132,1,0,2,2,475
4,133,1,0,1,1,867
4,134,1,0,1,0,NaN
4,135,1,0,1,0,NaN
4,135,1,0,1,1,541
4,137,2,0,1,3,NaN
4,140,1,0,1,0,NaN
4,140,1,0,2,2,525
4,141,1,0,1,0,NaN
4,141,1,0,1,1,500
4,142,1,0,2,3,NaN
4,143,2,0,2,1,483
4,143,2,0,1,0,NaN
4,144,2,0,2,1,500
4,144,2,0,1,0,NaN
4,145,2,0,2,0,NaN
4,145,2,0,1,0,NaN
4,145,2,0,2,1,509
4,146,1,0,2,0,NaN
4,146,1,0,1,1,568
4,148,2,0,2,1,583
4,148,2,0,1,0,NaN
4,148,2,0,1,0,NaN
4,149,1,0,2,0,NaN
4,149,1,0,2,0,NaN
4,149,1,0,1,1,549
4,153,1,0,1,0,NaN
4,153,1,0,1,1,750
4,154,1,0,1,0,NaN
4,154,1,0,2,0,NaN
4,154,1,0,1,1,609
4,155,2,0,1,0,NaN
4,155,2,0,2,1,633
4,157,2,0,1,0,NaN
4,157,2,0,1,0,NaN
4,157,2,0,2,1,476
4,159,2,0,1,0,NaN
4,159,2,0,2,1,375
4,160,1,0,1,1,567
4,161,1,0,1,1,625
4,162,1,0,1,0,NaN
4,162,1,0,2,0,NaN
4,163,2,0,1,3,NaN
4,164,1,0,2,0,NaN
4,164,1,0,1,1,658
4,165,1,0,2,0,NaN
4,165,1,0,1,1,667
4,165,1,0,2,0,NaN
4,167,2,0,1,3,NaN
4,167,2,0,1,3,NaN
4,168,1,0,1,0,NaN
4,168,1,0,1,1,716
4,168,1,0,2,0,NaN
4,170,1,0,2,3,NaN
4,170,1,0,2,3,NaN
4,172,2,0,2,1,550
4,174,2,0,2,1,609
4,177,1,0,1,1,616
4,178,1,0,1,0,NaN
4,178,1,0,2,0,NaN
4,178,1,0,1,1,491
4,179,2,0,2,0,NaN
4,179,2,0,2,1,484
4,180,2,0,2,0,NaN
4,180,2,0,2,1,399
4,184,2,0,2,1,642
4,185,1,0,1,1,684
4,186,1,0,2,0,NaN
4,186,1,0,1,0,NaN
4,186,1,0,2,2,542
4,187,2,0,2,0,NaN
4,187,2,0,1,2,449
4,188,1,0,2,2,734
4,191,2,0,1,0,NaN
4,191,2,0,1,0,NaN
4,191,2,0,2,1,475
4,192,2,0,2,1,683
4,192,2,0,1,0,NaN
4,193,1,0,1,0,NaN
4,193,1,0,2,2,483
4,194,2,0,1,0,NaN
4,194,2,0,2,0,NaN
4,195,1,0,1,0,NaN
4,197,2,0,1,3,NaN
4,197,2,0,1,3,NaN
4,197,2,0,1,3,NaN
4,198,1,0,2,0,NaN
4,198,1,0,1,1,534
4,199,2,0,2,1,784
4,199,2,0,1,0,NaN
4,200,1,0,2,0,NaN
4,200,1,0,2,2,783
4,200,1,0,2,0,NaN
4,201,2,0,1,0,NaN
4,201,2,1,2,1,608
4,201,2,0,1,0,NaN
4,203,1,0,2,0,NaN
4,203,1,0,2,0,NaN
4,203,1,0,2,2,458
4,205,1,0,2,0,NaN
4,205,1,1,1,1,516
4,210,1,0,2,3,NaN
4,211,1,0,2,3,NaN
4,211,1,0,2,3,NaN
4,213,1,0,2,3,NaN
4,213,1,0,2,3,NaN
4,213,1,0,2,3,NaN
4,214,2,0,1,0,NaN
4,214,2,0,2,0,NaN
4,214,2,1,2,1,558
4,218,2,0,1,0,NaN
4,218,2,1,2,1,550
4,220,2,0,1,3,NaN
4,220,2,0,1,3,NaN
4,223,2,0,1,3,NaN
4,224,1,1,1,0,NaN
4,224,1,0,1,1,450
4,224,1,0,2,0,NaN
4,225,2,0,1,3,NaN
4,225,2,0,1,3,NaN
4,226,2,0,1,3,NaN
4,227,2,1,2,1,509
4,228,2,0,2,1,834
4,228,2,0,1,0,NaN
4,229,1,0,2,3,NaN
4,229,1,1,1,0,NaN
4,230,2,0,1,3,NaN
4,230,2,0,1,3,NaN
4,231,1,0,2,3,NaN
4,231,1,0,2,3,NaN
4,232,2,0,2,0,NaN
4,232,2,1,2,1,551
4,232,2,1,2,0,NaN
4,234,2,0,1,3,NaN
4,235,1,0,2,0,NaN
4,235,1,1,1,0,NaN
4,235,1,0,1,1,584
4,236,1,0,1,0,NaN
4,236,1,0,1,1,632
4,236,1,0,1,0,NaN
4,237,1,0,1,1,550
4,241,2,0,1,3,NaN
4,242,1,0,2,3,NaN
4,242,1,0,2,3,NaN
4,242,1,0,2,3,NaN
4,243,2,0,1,0,NaN
4,243,2,0,2,1,524
4,244,1,0,1,0,NaN
4,244,1,0,2,2,500
4,247,2,0,1,3,NaN
4,247,2,0,1,3,NaN
4,247,2,1,2,0,NaN
4,248,2,0,1,3,NaN
4,248,2,1,2,0,NaN
4,248,2,1,2,0,NaN
4,249,1,0,2,0,NaN
4,249,1,0,1,1,634
4,250,2,0,1,0,NaN
4,250,2,1,2,1,517
4,251,2,1,2,0,NaN
4,251,2,1,2,0,NaN
4,251,2,1,2,1,541
4,253,1,0,1,0,NaN
4,255,1,0,2,3,NaN
4,255,1,0,2,3,NaN
4,255,1,0,1,0,NaN
4,256,1,0,1,0,NaN
4,256,1,0,1,1,458
4,258,2,1,2,1,791
4,259,1,0,2,2,584
4,259,1,0,2,0,NaN
4,260,2,1,2,1,699
4,261,1,0,1,0,NaN
4,264,1,0,1,1,842
4,268,2,1,2,0,NaN
4,268,2,0,1,0,NaN
4,268,2,0,2,1,516
4,269,2,1,2,0,NaN
4,269,2,1,2,1,492
4,271,1,0,1,0,NaN
4,271,1,0,1,0,NaN
4,271,1,0,1,1,474
4,274,1,0,1,1,575
4,275,2,0,1,3,NaN
4,275,2,0,1,3,NaN
4,275,2,0,1,3,NaN
4,276,2,1,2,0,NaN
4,276,2,1,2,1,442
4,277,2,0,1,3,NaN
4,277,2,0,1,3,NaN
4,278,1,0,2,0,NaN
4,280,2,0,1,0,NaN
4,280,2,1,2,0,NaN
4,280,2,1,2,1,401
4,282,2,1,2,1,559
4,283,2,0,1,3,NaN
4,283,2,0,1,3,NaN
4,287,1,0,2,0,NaN
4,287,1,0,1,1,608
4,288,2,0,2,1,550
4,292,2,1,2,0,NaN
4,292,2,1,2,1,384
4,294,1,0,2,3,NaN
4,294,1,0,2,3,NaN
4,297,1,0,2,3,NaN
4,297,1,0,2,3,NaN
4,297,1,0,2,3,NaN
4,298,1,0,1,0,NaN
4,298,1,1,1,0,NaN
4,298,1,0,1,1,474
4,301,2,0,1,3,NaN
4,302,1,0,1,0,NaN
4,302,1,0,1,1,466
4,303,1,0,1,0,NaN
4,303,1,0,2,0,NaN
4,303,1,0,2,2,317
4,304,1,0,1,0,NaN
4,304,1,0,1,1,517
4,305,2,1,2,1,717
4,309,1,0,2,3,NaN
4,309,1,0,2,3,NaN
4,311,1,0,2,0,NaN
4,311,1,0,1,1,509
4,312,2,1,2,0,NaN
4,312,2,1,2,0,NaN
4,312,2,1,2,1,399
4,313,2,0,1,0,NaN
4,313,2,1,2,0,NaN
4,313,2,0,2,1,492
4,314,1,0,2,2,533
4,315,1,0,2,3,NaN
4,316,2,1,2,0,NaN
4,316,2,1,2,1,491
4,317,2,1,2,0,NaN
4,317,2,0,1,0,NaN
4,317,2,0,1,2,516
4,318,1,0,2,3,NaN
4,318,1,0,2,3,NaN
4,318,1,0,2,3,NaN
4,320,1,1,1,0,NaN
4,320,1,0,2,0,NaN
4,320,1,1,1,1,467
4,323,1,0,2,3,NaN
4,324,2,0,1,3,NaN
4,325,1,0,1,1,567
4,329,2,0,1,0,NaN
4,329,2,0,2,1,616
4,329,2,1,2,0,NaN
4,332,2,0,2,1,625
4,332,2,0,1,0,NaN
4,333,2,0,1,3,NaN
4,333,2,0,1,3,NaN
4,333,2,0,1,3,NaN
4,335,1,0,2,0,NaN
4,335,1,0,1,0,NaN
4,335,1,0,1,1,433
4,336,1,0,1,0,NaN
4,336,1,0,1,0,NaN
4,336,1,1,1,1,475
4,339,1,0,1,0,NaN
4,339,1,1,1,1,467
4,341,1,0,1,1,733
4,343,2,0,1,0,NaN
4,343,2,1,2,1,584
4,343,2,0,1,0,NaN
4,345,2,0,1,3,NaN
4,345,2,0,1,3,NaN
4,346,2,0,1,3,NaN
4,346,2,0,1,3,NaN
4,346,2,0,1,3,NaN
4,347,1,0,2,0,NaN
4,347,1,0,1,1,683
4,352,1,0,1,0,NaN
4,352,1,0,2,0,NaN
4,352,1,0,1,1,442
4,353,1,0,2,3,NaN
4,353,1,0,2,3,NaN
4,354,1,0,2,3,NaN
4,354,1,0,2,3,NaN
4,355,2,0,1,0,NaN
4,355,2,1,2,1,492
4,356,2,0,2,0,NaN
4,356,2,1,2,0,NaN
4,356,2,0,2,1,408
4,358,2,0,2,1,483
4,359,2,0,1,3,NaN
4,360,2,1,2,1,533
4,363,2,1,2,1,517
4,364,2,0,1,3,NaN
4,365,2,0,1,0,NaN
4,365,2,1,2,1,792
4,366,1,0,1,0,NaN
4,366,1,0,2,0,NaN
4,366,1,0,1,1,708
4,367,1,0,2,3,NaN
4,368,2,1,2,0,NaN
4,368,2,0,1,0,NaN
4,370,2,0,1,0,NaN
4,370,2,0,1,2,441
4,370,2,0,1,0,NaN
4,371,2,0,1,3,NaN
4,371,2,0,1,3,NaN
4,372,1,0,2,0,NaN
4,372,1,0,1,1,584
4,373,1,0,2,2,867
4,373,1,0,2,0,NaN
4,374,1,1,1,1,533
4,375,1,0,2,0,NaN
4,375,1,1,1,1,567
4,378,1,0,1,1,550
4,379,1,0,1,0,NaN
4,379,1,0,2,0,NaN
4,379,1,0,1,1,542
4,380,1,0,1,1,667
4,382,2,1,2,0,NaN
4,382,2,1,2,0,NaN
4,382,2,0,1,0,NaN
4,383,2,0,1,3,NaN
4,383,2,1,2,0,NaN
4,385,2,1,2,0,NaN
4,385,2,0,1,0,NaN
4,386,2,1,2,1,592
4,387,1,0,1,0,NaN
4,388,2,0,1,0,NaN
4,388,2,1,2,1,808
4,389,1,0,1,1,541
4,389,1,0,2,0,NaN
4,391,1,0,1,0,NaN
4,393,2,1,2,1,550
4,396,1,0,2,0,NaN
4,396,1,0,1,0,NaN
4,396,1,0,2,2,450
4,399,1,1,1,1,766
4,401,1,0,1,0,NaN
4,401,1,0,1,1,558
4,402,2,0,1,0,NaN
4,402,2,0,2,1,467
4,403,1,0,2,3,NaN
4,404,2,0,1,0,NaN
4,404,2,0,2,0,NaN
4,404,2,0,2,1,584
4,406,2,0,1,0,NaN
4,406,2,0,1,0,NaN
4,406,2,0,2,1,558
4,407,1,0,2,2,766
4,407,1,0,1,0,NaN
4,411,2,0,2,1,576
4,413,1,0,2,0,NaN
4,413,1,0,1,1,834
4,415,1,0,2,0,NaN
4,415,1,0,1,0,NaN
4,415,1,0,1,1,533
4,420,2,0,1,0,NaN
4,420,2,0,2,1,617
4,421,1,0,2,0,NaN
4,421,1,0,1,1,566
4,421,1,0,2,0,NaN
4,422,2,0,1,0,NaN
4,422,2,0,2,1,650
4,424,1,0,2,3,NaN
4,425,1,0,2,3,NaN
4,425,1,0,2,3,NaN
4,426,2,0,2,1,550
4,427,2,0,1,0,NaN
4,427,2,0,2,1,541
4,428,1,0,1,0,NaN
4,429,2,0,1,3,NaN
4,430,2,0,2,0,NaN
4,430,2,0,2,1,491
4,431,2,0,2,1,675
4,431,2,0,1,0,NaN
4,432,2,0,1,3,NaN
4,434,1,0,2,2,641
4,435,1,0,2,3,NaN
4,435,1,0,2,3,NaN
4,435,1,0,2,3,NaN
4,437,1,0,2,3,NaN
4,438,1,0,1,0,NaN
4,438,1,0,1,0,NaN
4,439,1,0,2,0,NaN
4,439,1,0,1,1,475
4,439,1,0,2,0,NaN
4,441,2,0,2,0,NaN
4,441,2,0,1,0,NaN
4,441,2,0,1,2,776
4,442,2,0,1,3,NaN
4,442,2,0,1,3,NaN
4,442,2,0,1,3,NaN
4,444,1,0,1,1,675
4,444,1,0,2,0,NaN
4,445,2,0,1,0,NaN
4,445,2,0,1,0,NaN
4,445,2,0,2,1,675
4,449,2,0,2,0,NaN
4,449,2,0,2,1,475
4,449,2,0,1,0,NaN
4,450,1,0,2,0,NaN
4,450,1,0,1,1,525
4,450,1,0,2,0,NaN
4,451,1,0,2,3,NaN
4,451,1,0,2,3,NaN
4,453,1,0,1,0,NaN
4,453,1,0,1,1,600
4,458,1,0,2,0,NaN
4,458,1,0,1,1,725
4,459,1,0,1,0,NaN
4,459,1,0,2,3,NaN
4,460,2,0,1,0,NaN
4,460,2,0,2,0,NaN
4,460,2,0,1,2,517
4,461,1,0,2,3,NaN
4,461,1,0,2,3,NaN
4,462,2,0,1,3,NaN
4,463,2,0,2,0,NaN
4,463,2,0,2,1,467
4,464,1,0,2,0,NaN
4,464,1,0,1,1,859
4,467,2,0,2,1,658
4,468,2,0,2,0,NaN
4,468,2,0,2,1,792
4,469,2,0,1,0,NaN
4,469,2,0,2,1,450
4,470,2,0,1,3,NaN
4,470,2,0,1,3,NaN
4,471,2,0,1,3,NaN
4,472,2,0,2,0,NaN
4,472,2,0,1,0,NaN
4,472,2,0,2,1,508
4,474,2,0,2,1,566
4,475,1,0,1,0,NaN
4,475,1,0,1,1,341
4,476,1,0,1,0,NaN
4,476,1,0,2,0,NaN
4,476,1,0,1,1,667
4,477,1,0,1,0,NaN
4,477,1,0,2,0,NaN
4,477,1,0,1,1,825
4,481,1,0,1,0,NaN
4,481,1,0,2,0,NaN
4,482,2,0,1,2,775
4,482,2,0,2,0,NaN
4,483,2,0,1,0,NaN
4,483,2,0,2,1,434
4,483,2,0,1,0,NaN
4,490,1,0,1,1,658
4,491,1,0,1,0,NaN
4,491,1,0,2,0,NaN
4,491,1,0,2,2,458
4,492,1,0,1,0,NaN
4,492,1,0,1,1,559
4,493,1,0,2,0,NaN
4,493,1,0,1,1,675
4,495,1,0,2,0,NaN
4,496,2,0,2,1,500
4,498,2,0,1,3,NaN
4,499,1,0,1,0,NaN
4,499,1,0,2,2,617
4,499,1,0,2,0,NaN
4,504,1,0,1,0,NaN
4,505,2,0,1,2,768
4,505,2,0,1,0,NaN
4,507,1,0,1,1,799
4,507,1,0,2,0,NaN
4,508,2,0,2,1,634
4,509,1,0,1,1,616
4,511,2,0,2,1,517
4,511,2,0,1,0,NaN
4,511,2,0,1,0,NaN
4,512,1,0,2,0,NaN
4,512,1,0,1,1,741
4,513,2,0,2,0,NaN
4,513,2,0,2,0,NaN
4,513,2,0,2,1,400
4,515,2,0,2,0,NaN
4,515,2,0,2,1,458
4,515,2,0,1,0,NaN
4,520,2,0,1,3,NaN
4,520,2,0,1,3,NaN
4,522,1,0,1,0,NaN
4,522,1,0,1,1,475
4,524,2,0,2,0,NaN
4,524,2,0,1,0,NaN
4,524,2,0,2,1,442
4,525,1,0,1,1,633
4,528,2,0,1,3,NaN
4,530,2,0,2,1,667
4,530,2,0,1,0,NaN
4,531,1,0,2,0,NaN
4,531,1,0,2,0,NaN
4,531,1,0,2,2,333
4,532,2,0,1,3,NaN
4,533,1,0,2,3,NaN
4,536,1,0,2,0,NaN
4,536,1,0,1,0,NaN
4,536,1,0,1,1,583
4,538,1,0,2,0,NaN
4,538,1,0,2,0,NaN
4,538,1,0,1,1,391
4,539,2,0,1,3,NaN
4,539,2,0,1,3,NaN
4,540,2,0,1,0,NaN
4,540,2,0,2,1,851
4,543,1,0,1,1,618
4,544,1,0,2,0,NaN
4,544,1,0,1,1,633
4,545,2,0,2,0,NaN
4,545,2,0,2,1,500
4,546,2,0,1,0,NaN
4,546,2,0,2,1,483
4,547,2,0,1,0,NaN
4,547,2,0,1,0,NaN
4,548,1,0,2,3,NaN
4,548,1,0,2,3,NaN
4,549,1,0,2,0,NaN
4,549,1,0,1,1,500
4,549,1,0,2,0,NaN
4,550,2,0,2,0,NaN
4,550,2,0,2,1,426
4,551,1,0,2,3,NaN
4,553,1,0,2,0,NaN
4,553,1,0,1,1,683
4,554,2,0,1,3,NaN
4,555,2,0,2,1,666
4,556,1,0,1,0,NaN
4,556,1,0,2,2,558
4,557,2,0,1,3,NaN
4,557,2,0,1,3,NaN
4,559,1,0,1,0,NaN
4,559,1,0,1,1,625
4,559,1,0,2,0,NaN
4,563,2,0,2,0,NaN
4,563,2,0,2,1,600
4,565,2,0,1,3,NaN
4,565,2,0,1,3,NaN
4,566,2,0,1,0,NaN
4,566,2,0,2,0,NaN
4,566,2,0,2,1,509
4,568,2,0,1,0,NaN
4,568,2,0,2,0,NaN
4,568,2,0,2,1,399
4,570,2,0,2,1,583
4,570,2,0,1,0,NaN
4,570,2,0,1,0,NaN
4,571,2,0,2,0,NaN
4,571,2,0,2,1,408
4,571,2,0,1,0,NaN
4,573,2,0,2,0,NaN
4,573,2,0,2,1,417
4,575,1,0,1,0,NaN
4,575,1,0,1,1,725
4,577,1,0,1,0,NaN
4,577,1,0,2,2,658
4,581,1,0,2,0,NaN
4,581,1,0,1,1,726
4,582,1,0,1,0,NaN
4,582,1,0,2,3,NaN
4,585,2,0,1,3,NaN
4,587,1,0,1,1,649
4,588,2,0,1,2,608
4,590,1,0,1,0,NaN
4,590,1,0,2,2,500
4,592,2,0,2,0,NaN
4,592,2,0,1,2,558
4,594,1,0,1,0,NaN
4,594,1,0,1,1,466
4,595,1,0,1,1,542
4,597,1,0,2,3,NaN
4,597,1,0,2,3,NaN
4,597,1,0,2,3,NaN
4,599,2,0,2,0,NaN
4,599,2,0,2,0,NaN
4,600,1,0,1,0,NaN
4,600,1,0,1,1,709
6,2,2,0,1,0,NaN
6,2,2,0,2,1,650
6,2,2,0,1,0,NaN
6,4,1,0,2,3,NaN
6,6,1,0,1,0,NaN
6,6,1,0,1,1,500
6,8,2,0,1,0,NaN
6,8,2,0,2,1,408
6,10,1,0,1,0,NaN
6,10,1,0,1,0,NaN
6,10,1,0,1,1,583
6,12,1,0,2,0,NaN
6,12,1,0,1,1,516
6,15,1,0,2,3,NaN
6,16,1,0,2,3,NaN
6,16,1,0,2,3,NaN
6,16,1,0,2,3,NaN
6,17,2,0,1,0,NaN
6,17,2,0,2,1,667
6,20,1,0,2,0,NaN
6,20,1,0,2,0,NaN
6,20,1,0,1,1,576
6,21,1,0,2,3,NaN
6,21,1,0,2,3,NaN
6,22,2,0,1,0,NaN
6,22,2,0,2,1,583
6,23,1,0,2,0,NaN
6,23,1,0,1,1,583
6,24,2,0,2,0,NaN
6,24,2,0,2,1,458
6,25,2,0,1,0,NaN
6,25,2,0,2,1,591
6,26,2,0,1,3,NaN
6,26,2,0,1,3,NaN
6,26,2,0,1,3,NaN
6,27,1,0,1,0,NaN
6,27,1,0,1,1,500
6,28,2,0,2,0,NaN
6,28,2,0,2,1,475
6,28,2,0,1,0,NaN
6,29,2,0,2,0,NaN
6,29,2,0,2,1,443
6,32,1,0,1,0,NaN
6,32,1,0,1,0,NaN
6,32,1,0,1,1,433
6,33,1,0,1,0,NaN
6,34,2,0,2,1,467
6,35,1,0,1,1,500
6,35,1,0,2,0,NaN
6,35,1,0,2,0,NaN
6,36,2,0,2,0,NaN
6,36,2,0,1,0,NaN
6,36,2,0,2,1,566
6,37,1,0,2,3,NaN
6,40,1,0,2,0,NaN
6,40,1,0,2,0,NaN
6,40,1,0,1,1,667
6,42,2,0,1,3,NaN
6,43,1,0,2,0,NaN
6,43,1,0,1,1,667
6,43,1,0,2,0,NaN
6,44,1,0,1,1,434
6,45,2,0,1,3,NaN
6,45,2,0,1,3,NaN
6,52,1,0,1,0,NaN
6,52,1,0,1,1,659
6,53,1,0,2,0,NaN
6,53,1,0,1,1,484
6,53,1,0,2,0,NaN
6,54,1,0,2,0,NaN
6,54,1,0,1,1,634
6,54,1,0,2,0,NaN
6,57,2,0,1,0,NaN
6,57,2,0,2,1,500
6,58,2,0,2,1,526
6,58,2,0,1,0,NaN
6,60,1,0,2,0,NaN
6,60,1,0,1,1,491
6,66,2,0,2,0,NaN
6,66,2,0,1,0,NaN
6,66,2,0,2,1,483
6,67,1,0,2,3,NaN
6,68,1,0,2,3,NaN
6,69,2,0,2,1,649
6,69,2,0,1,0,NaN
6,70,1,0,2,3,NaN
6,71,2,0,2,0,NaN
6,71,2,0,1,0,NaN
6,71,2,0,1,2,617
6,72,2,0,1,3,NaN
6,72,2,0,1,3,NaN
6,73,2,0,2,1,382
6,73,2,0,1,0,NaN
6,75,2,0,2,1,525
6,76,1,0,1,0,NaN
6,76,1,0,1,1,434
6,78,1,0,2,3,NaN
6,78,1,0,2,3,NaN
6,79,1,0,1,0,NaN
6,79,1,0,1,1,507
6,81,1,0,2,0,NaN
6,81,1,0,2,0,NaN
6,81,1,0,1,1,557
6,82,1,0,1,0,NaN
6,82,1,0,2,0,NaN
6,82,1,0,2,0,NaN
6,83,1,0,1,1,483
6,85,1,0,1,0,NaN
6,85,1,0,2,2,450
6,86,2,0,2,1,458
6,88,2,0,2,1,807
6,89,2,0,1,3,NaN
6,90,2,0,1,0,NaN
6,90,2,0,2,1,608
6,91,1,0,1,1,750
6,91,1,0,2,0,NaN
6,92,1,0,1,1,641
6,92,1,0,2,0,NaN
6,93,1,0,1,1,717
6,96,1,0,1,1,550
6,96,1,0,2,0,NaN
6,98,1,0,1,0,NaN
6,98,1,0,1,0,NaN
6,98,1,0,1,1,475
6,99,2,0,1,3,NaN
6,100,2,0,1,3,NaN
6,100,2,0,1,3,NaN
6,101,1,0,2,3,NaN
6,101,1,0,2,3,NaN
6,102,1,0,2,3,NaN
6,104,2,0,1,3,NaN
6,105,2,0,2,1,541
6,106,1,0,1,0,NaN
6,106,1,0,1,0,NaN
6,106,1,0,1,0,NaN
6,107,2,0,1,0,NaN
6,107,2,0,1,0,NaN
6,107,2,0,2,1,407
6,109,1,0,1,1,649
6,110,2,0,1,3,NaN
6,110,2,0,1,3,NaN
6,112,1,0,2,3,NaN
6,112,1,0,2,3,NaN
6,114,2,0,2,1,568
6,114,2,0,1,0,NaN
6,117,2,0,2,0,NaN
6,117,2,0,1,0,NaN
6,117,2,0,2,1,400
6,118,1,0,1,0,NaN
6,118,1,0,1,1,559
6,120,2,0,1,0,NaN
6,120,2,0,2,1,525
6,120,2,0,1,0,NaN
6,122,2,0,2,1,533
6,123,1,0,2,3,NaN
6,128,1,0,2,0,NaN
6,128,1,0,1,1,467
6,129,2,0,1,0,NaN
6,129,2,0,2,1,517
6,129,2,0,1,0,NaN
6,131,2,0,1,0,NaN
6,131,2,0,2,1,600
6,132,1,0,2,3,NaN
6,134,1,0,1,0,NaN
6,134,1,0,1,1,449
6,134,1,0,2,0,NaN
6,135,2,0,1,0,NaN
6,135,2,0,2,1,458
6,135,2,0,1,0,NaN
6,136,2,0,1,0,NaN
6,136,2,0,2,1,450
6,137,2,0,2,1,550
6,137,2,0,1,0,NaN
6,138,2,0,2,0,NaN
6,138,2,0,2,1,483
6,140,2,0,2,0,NaN
6,140,2,0,2,1,441
6,140,2,0,1,0,NaN
6,141,2,0,1,3,NaN
6,142,2,0,2,0,NaN
6,142,2,0,2,0,NaN
6,142,2,0,2,1,467
6,145,1,0,2,0,NaN
6,145,1,0,1,1,600
6,146,2,0,1,2,642
6,148,2,0,1,0,NaN
6,148,2,0,1,2,500
6,150,1,0,1,0,NaN
6,150,1,0,2,2,424
6,154,2,0,2,0,NaN
6,154,2,0,1,0,NaN
6,154,2,0,2,1,509
6,155,2,0,1,0,NaN
6,155,2,0,2,0,NaN
6,155,2,0,2,1,608
6,156,2,0,2,1,541
6,157,1,0,1,0,NaN
6,157,1,0,1,0,NaN
6,157,1,0,1,1,507
6,158,1,0,2,0,NaN
6,158,1,0,2,0,NaN
6,158,1,0,1,1,525
6,159,2,0,1,0,NaN
6,159,2,0,2,1,583
6,160,1,0,2,3,NaN
6,161,1,0,2,3,NaN
6,161,1,0,2,3,NaN
6,162,2,0,1,3,NaN
6,164,2,0,1,2,525
6,164,2,0,1,0,NaN
6,165,1,0,1,0,NaN
6,165,1,0,2,2,692
6,166,1,0,2,3,NaN
6,166,1,0,2,3,NaN
6,168,1,0,2,3,NaN
6,169,2,0,2,0,NaN
6,169,2,0,2,1,476
6,171,2,0,1,3,NaN
6,173,1,0,1,0,NaN
6,173,1,0,1,1,491
6,173,1,0,2,0,NaN
6,175,2,0,1,3,NaN
6,178,1,0,2,3,NaN
6,183,1,0,1,1,724
6,186,2,0,2,0,NaN
6,186,2,0,2,1,442
6,189,2,0,2,0,NaN
6,189,2,0,2,1,625
6,189,2,0,1,0,NaN
6,190,1,0,1,0,NaN
6,190,1,0,2,0,NaN
6,190,1,0,1,1,642
6,191,2,0,2,0,NaN
6,191,2,0,2,0,NaN
6,191,2,0,2,1,592
6,192,2,0,1,3,NaN
6,194,2,0,2,1,575
6,194,2,0,1,0,NaN
6,196,1,0,1,1,442
6,196,1,0,2,0,NaN
6,201,1,0,2,0,NaN
6,201,1,0,2,0,NaN
6,201,1,0,1,1,682
6,202,2,0,1,0,NaN
6,202,2,0,1,0,NaN
6,202,2,1,2,1,384
6,204,1,0,2,0,NaN
6,204,1,0,1,1,640
6,204,1,0,2,0,NaN
6,205,2,1,2,1,525
6,206,1,0,1,0,NaN
6,206,1,0,1,1,475
6,206,1,0,2,0,NaN
6,210,1,0,2,3,NaN
6,213,1,0,2,3,NaN
6,215,1,0,2,3,NaN
6,216,2,1,2,0,NaN
6,216,2,0,2,1,509
6,218,2,1,2,1,500
6,219,2,0,1,3,NaN
6,219,2,0,1,3,NaN
6,219,2,0,1,3,NaN
6,222,1,0,2,0,NaN
6,222,1,0,1,1,725
6,223,1,0,2,3,NaN
6,225,1,0,2,0,NaN
6,225,1,0,2,0,NaN
6,225,1,0,1,1,517
6,226,2,0,1,3,NaN
6,226,2,0,1,3,NaN
6,228,1,0,1,1,683
6,228,1,0,2,0,NaN
6,228,1,0,1,0,NaN
6,230,2,0,1,0,NaN
6,230,2,1,2,1,500
6,231,2,0,2,1,541
6,235,1,0,1,0,NaN
6,235,1,0,1,1,433
6,236,1,0,2,2,401
6,240,2,1,2,1,550
6,240,2,0,1,0,NaN
6,241,1,0,1,1,483
6,245,2,1,2,0,NaN
6,245,2,1,2,1,535
6,247,1,0,2,3,NaN
6,252,2,0,1,0,NaN
6,252,2,1,2,0,NaN
6,252,2,1,2,1,550
6,253,2,0,1,3,NaN
6,253,2,0,1,3,NaN
6,255,1,0,2,3,NaN
6,255,1,0,2,3,NaN
6,256,2,0,2,1,458
6,257,1,0,1,0,NaN
6,257,1,0,2,2,551
6,261,2,0,1,0,NaN
6,261,2,0,1,0,NaN
6,261,2,1,2,1,533
6,263,2,0,1,3,NaN
6,264,1,0,1,0,NaN
6,264,1,0,2,0,NaN
6,264,1,0,1,1,492
6,267,2,0,1,3,NaN
6,267,2,0,1,3,NaN
6,268,1,0,1,0,NaN
6,268,1,1,1,1,608
6,270,2,1,2,1,558
6,271,2,0,1,3,NaN
6,271,2,0,1,3,NaN
6,273,1,0,1,0,NaN
6,273,1,0,1,1,400
6,273,1,0,1,0,NaN
6,274,2,1,2,1,500
6,274,2,0,1,0,NaN
6,275,2,0,1,2,475
6,275,2,0,1,0,NaN
6,276,2,0,1,0,NaN
6,276,2,0,1,0,NaN
6,276,2,1,2,1,525
6,278,2,0,1,2,634
6,282,2,1,2,0,NaN
6,282,2,0,2,1,458
6,282,2,0,1,0,NaN
6,283,1,0,2,3,NaN
6,283,1,0,1,0,NaN
6,285,1,0,1,1,458
6,285,1,0,2,0,NaN
6,287,2,0,1,3,NaN
6,288,2,0,2,1,758
6,289,2,1,2,0,NaN
6,289,2,1,2,1,409
6,289,2,0,1,0,NaN
6,290,1,0,2,0,NaN
6,290,1,0,1,0,NaN
6,290,1,0,1,1,599
6,292,2,0,1,3,NaN
6,293,2,1,2,0,NaN
6,293,2,1,2,1,566
6,295,2,0,1,3,NaN
6,295,2,0,1,3,NaN
6,297,1,0,2,3,NaN
6,297,1,0,2,3,NaN
6,299,1,0,1,0,NaN
6,299,1,0,1,1,400
6,300,1,1,1,0,NaN
6,300,1,0,1,0,NaN
6,301,1,0,2,0,NaN
6,301,1,0,1,1,484
6,302,1,0,2,0,NaN
6,302,1,0,2,0,NaN
6,302,1,0,1,1,475
6,305,1,0,2,3,NaN
6,306,2,0,1,0,NaN
6,306,2,0,1,0,NaN
6,306,2,0,2,1,583
6,307,1,0,2,3,NaN
6,307,1,0,2,3,NaN
6,307,1,0,2,3,NaN
6,308,2,1,2,1,742
6,309,1,0,1,0,NaN
6,309,1,1,1,0,NaN
6,310,2,1,2,1,417
6,311,2,1,2,0,NaN
6,311,2,1,2,1,458
6,312,2,0,1,3,NaN
6,313,2,0,2,0,NaN
6,313,2,1,2,1,408
6,314,1,0,2,0,NaN
6,314,1,0,1,0,NaN
6,314,1,0,1,1,542
6,315,1,0,2,3,NaN
6,316,2,0,2,1,392
6,316,2,0,1,0,NaN
6,316,2,0,1,0,NaN
6,317,1,0,1,1,575
6,318,1,0,1,0,NaN
6,318,1,0,1,1,467
6,321,1,0,1,1,508
6,322,2,0,1,0,NaN
6,322,2,1,2,1,700
6,323,1,1,1,1,758
6,323,1,0,2,0,NaN
6,323,1,0,2,0,NaN
6,324,2,1,2,0,NaN
6,324,2,1,2,1,434
6,324,2,0,1,0,NaN
6,326,1,0,1,1,416
6,326,1,0,2,0,NaN
6,328,2,1,2,1,483
6,330,1,0,2,2,592
6,330,1,0,2,0,NaN
6,331,1,0,2,3,NaN
6,331,1,0,2,3,NaN
6,332,2,0,1,0,NaN
6,332,2,0,2,0,NaN
6,332,2,1,2,1,401
6,333,2,1,2,0,NaN
6,333,2,1,2,0,NaN
6,333,2,1,2,1,425
6,334,1,0,2,2,508
6,334,1,0,2,0,NaN
6,336,1,1,1,0,NaN
6,336,1,1,1,0,NaN
6,336,1,0,1,0,NaN
6,337,1,0,2,0,NaN
6,337,1,0,1,1,441
6,338,1,0,1,1,834
6,339,1,0,2,2,684
6,340,2,1,2,1,442
6,340,2,0,1,0,NaN
6,342,1,0,2,3,NaN
6,342,1,0,2,3,NaN
6,344,2,0,1,0,NaN
6,344,2,1,2,1,517
6,346,1,0,1,1,517
6,348,2,1,2,1,601
6,349,1,0,2,3,NaN
6,349,1,0,2,3,NaN
6,352,1,0,1,0,NaN
6,352,1,0,1,1,400
6,353,1,0,1,0,NaN
6,353,1,0,2,2,408
6,353,1,0,2,0,NaN
6,354,1,0,1,1,449
6,354,1,0,2,0,NaN
6,357,2,0,1,3,NaN
6,357,2,0,1,3,NaN
6,358,2,0,2,0,NaN
6,358,2,1,2,0,NaN
6,358,2,1,2,1,450
6,359,1,0,2,3,NaN
6,360,2,0,1,3,NaN
6,361,1,0,2,3,NaN
6,363,2,0,1,0,NaN
6,363,2,1,2,1,558
6,363,2,0,1,0,NaN
6,364,1,1,1,0,NaN
6,364,1,0,2,0,NaN
6,366,2,0,1,0,NaN
6,366,2,1,2,0,NaN
6,366,2,1,2,1,425
6,367,2,0,1,0,NaN
6,367,2,1,2,0,NaN
6,367,2,1,2,1,416
6,368,2,1,2,1,392
6,369,2,0,1,3,NaN
6,370,2,1,2,0,NaN
6,370,2,0,1,2,583
6,372,1,0,1,0,NaN
6,372,1,0,1,1,341
6,372,1,0,2,0,NaN
6,373,1,1,1,1,400
6,373,1,0,2,0,NaN
6,375,2,0,1,2,516
6,377,2,0,1,3,NaN
6,377,2,0,1,3,NaN
6,377,2,0,1,3,NaN
6,383,1,1,1,0,NaN
6,383,1,1,1,0,NaN
6,383,1,0,2,2,408
6,384,1,1,1,1,417
6,384,1,0,2,0,NaN
6,385,1,0,1,0,NaN
6,385,1,0,1,0,NaN
6,385,1,1,1,1,384
6,388,1,0,1,0,NaN
6,388,1,0,2,2,633
6,389,2,0,1,0,NaN
6,389,2,0,1,2,508
6,391,2,0,1,0,NaN
6,391,2,1,2,1,643
6,397,2,1,2,0,NaN
6,397,2,1,2,0,NaN
6,397,2,0,2,1,392
6,398,2,0,1,0,NaN
6,398,2,1,2,1,409
6,398,2,0,1,0,NaN
6,399,1,0,2,2,433
6,400,2,0,1,0,NaN
6,400,2,0,2,1,558
6,404,1,0,2,0,NaN
6,404,1,0,2,0,NaN
6,404,1,0,1,1,491
6,405,1,0,2,3,NaN
6,405,1,0,2,3,NaN
6,406,2,0,2,0,NaN
6,406,2,0,1,2,467
6,406,2,0,1,0,NaN
6,407,2,0,2,0,NaN
6,407,2,0,2,1,608
6,407,2,0,1,0,NaN
6,414,1,0,2,2,859
6,414,1,0,2,0,NaN
6,416,2,0,2,0,NaN
6,416,2,0,1,0,NaN
6,416,2,0,2,1,417
6,422,2,0,1,3,NaN
6,422,2,0,1,3,NaN
6,422,2,0,1,3,NaN
6,423,2,0,1,3,NaN
6,424,2,0,2,0,NaN
6,424,2,0,1,0,NaN
6,424,2,0,2,1,484
6,425,2,0,2,1,534
6,427,1,0,2,0,NaN
6,427,1,0,1,1,400
6,428,1,0,2,3,NaN
6,428,1,0,2,3,NaN
6,428,1,0,1,0,NaN
6,429,1,0,1,1,434
6,430,2,0,2,0,NaN
6,430,2,0,1,0,NaN
6,430,2,0,1,2,483
6,431,1,0,2,3,NaN
6,431,1,0,2,3,NaN
6,432,2,0,1,3,NaN
6,433,1,0,1,0,NaN
6,433,1,0,2,3,NaN
6,434,2,0,2,1,467
6,434,2,0,1,0,NaN
6,435,2,0,1,3,NaN
6,436,1,0,1,0,NaN
6,436,1,0,1,1,417
6,436,1,0,2,0,NaN
6,437,1,0,2,3,NaN
6,438,2,0,2,0,NaN
6,438,2,0,2,1,408
6,439,1,0,1,0,NaN
6,439,1,0,2,2,434
6,439,1,0,1,0,NaN
6,440,2,0,1,2,466
6,441,1,0,2,2,450
6,441,1,0,2,0,NaN
6,442,1,0,1,0,NaN
6,442,1,0,1,1,400
6,443,2,0,2,0,NaN
6,443,2,0,2,1,392
6,446,2,0,2,0,NaN
6,446,2,0,2,1,451
6,447,1,0,1,1,410
6,448,1,0,1,0,NaN
6,448,1,0,1,1,459
6,448,1,0,2,0,NaN
6,449,1,0,2,0,NaN
6,449,1,0,1,1,384
6,451,2,0,2,1,417
6,452,2,0,1,0,NaN
6,452,2,0,1,0,NaN
6,452,2,0,2,1,533
6,453,2,0,1,3,NaN
6,454,2,0,2,0,NaN
6,454,2,0,2,1,434
6,456,2,0,1,0,NaN
6,456,2,0,1,0,NaN
6,456,2,0,2,1,425
6,457,1,0,1,0,NaN
6,457,1,0,1,1,467
6,458,1,0,1,0,NaN
6,458,1,0,2,2,441
6,460,2,0,2,1,625
6,460,2,0,1,0,NaN
6,462,2,0,2,0,NaN
6,462,2,0,2,1,449
6,464,1,0,2,3,NaN
6,465,1,0,1,0,NaN
6,465,1,0,1,1,451
6,465,1,0,2,0,NaN
6,467,2,0,1,3,NaN
6,468,1,0,2,0,NaN
6,468,1,0,1,1,726
6,469,1,0,2,0,NaN
6,469,1,0,1,1,633
6,470,1,0,2,0,NaN
6,470,1,0,1,1,558
6,471,1,0,2,3,NaN
6,472,1,0,2,3,NaN
6,472,1,0,2,3,NaN
6,473,2,0,1,0,NaN
6,473,2,0,2,1,516
6,474,1,0,1,0,NaN
6,474,1,0,1,1,474
6,476,1,0,1,0,NaN
6,476,1,0,1,0,NaN
6,476,1,0,1,1,692
6,477,2,0,1,2,417
6,477,2,0,1,0,NaN
6,477,2,0,1,0,NaN
6,478,1,0,1,0,NaN
6,478,1,0,1,0,NaN
6,478,1,0,1,0,NaN
6,479,1,0,2,3,NaN
6,479,1,0,2,3,NaN
6,480,1,0,2,2,484
6,480,1,0,2,0,NaN
6,480,1,0,1,0,NaN
6,482,2,0,1,3,NaN
6,482,2,0,1,3,NaN
6,482,2,0,1,3,NaN
6,483,1,0,1,0,NaN
6,483,1,0,1,0,NaN
6,484,1,0,1,0,NaN
6,484,1,0,1,1,458
6,485,2,0,2,1,367
6,486,2,0,2,1,492
6,486,2,0,1,0,NaN
6,487,2,0,2,0,NaN
6,487,2,0,2,0,NaN
6,487,2,0,2,1,633
6,488,1,0,1,0,NaN
6,488,1,0,2,2,333
6,488,1,0,2,0,NaN
6,489,2,0,2,1,658
6,493,1,0,2,0,NaN
6,493,1,0,1,1,483
6,494,2,0,2,1,533
6,494,2,0,1,0,NaN
6,494,2,0,1,0,NaN
6,498,2,0,1,3,NaN
6,498,2,0,1,3,NaN
6,498,2,0,1,3,NaN
6,499,1,0,2,3,NaN
6,500,2,0,2,0,NaN
6,500,2,0,1,0,NaN
6,500,2,0,2,1,650
6,502,2,0,1,3,NaN
6,502,2,0,1,3,NaN
6,506,2,0,2,1,500
6,506,2,0,1,0,NaN
6,510,1,0,2,0,NaN
6,510,1,0,1,1,750
6,511,1,0,1,1,558
6,513,1,0,1,1,500
6,513,1,0,2,0,NaN
6,514,1,0,1,1,467
6,515,2,0,2,1,517
6,515,2,0,1,0,NaN
6,518,2,0,2,0,NaN
6,518,2,0,2,1,309
6,519,1,0,2,2,483
6,519,1,0,2,0,NaN
6,522,1,0,1,0,NaN
6,522,1,0,1,1,417
6,523,1,0,1,0,NaN
6,523,1,0,1,1,550
6,524,1,0,1,0,NaN
6,524,1,0,1,0,NaN
6,524,1,0,2,2,659
6,525,1,0,1,0,NaN
6,526,1,0,1,0,NaN
6,526,1,0,1,0,NaN
6,526,1,0,1,1,408
6,527,2,0,2,0,NaN
6,527,2,0,2,1,359
6,529,2,0,1,3,NaN
6,532,1,0,2,3,NaN
6,532,1,0,2,3,NaN
6,533,2,0,1,2,517
6,536,2,0,1,0,NaN
6,536,2,0,2,1,492
6,540,2,0,2,1,542
6,542,2,0,1,3,NaN
6,545,1,0,2,3,NaN
6,545,1,0,2,3,NaN
6,547,1,0,2,0,NaN
6,547,1,0,1,1,649
6,548,1,0,2,0,NaN
6,548,1,0,1,1,458
6,549,2,0,2,0,NaN
6,549,2,0,1,2,500
6,550,1,0,2,0,NaN
6,550,1,0,1,1,475
6,553,1,0,2,3,NaN
6,553,1,0,2,3,NaN
6,557,2,0,2,1,434
6,558,2,0,2,0,NaN
6,558,2,0,2,1,416
6,559,2,0,1,3,NaN
6,559,2,0,2,0,NaN
6,560,2,0,2,0,NaN
6,560,2,0,2,1,474
6,562,1,0,2,3,NaN
6,563,1,0,1,1,425
6,563,1,0,1,0,NaN
6,564,2,0,1,3,NaN
6,565,2,0,2,1,575
6,566,1,0,2,3,NaN
6,567,1,0,1,0,NaN
6,567,1,0,2,0,NaN
6,567,1,0,1,1,617
6,568,2,0,1,0,NaN
6,568,2,0,2,0,NaN
6,568,2,0,1,2,434
6,571,1,0,2,2,650
6,575,2,0,2,0,NaN
6,575,2,0,2,1,408
6,575,2,0,1,0,NaN
6,576,2,0,2,0,NaN
6,576,2,0,2,1,442
6,577,2,0,1,0,NaN
6,577,2,0,2,1,533
6,577,2,0,1,0,NaN
6,582,2,0,1,3,NaN
6,582,2,0,1,3,NaN
6,582,2,0,1,3,NaN
6,586,1,0,2,0,NaN
6,586,1,0,1,1,700
6,587,1,0,2,3,NaN
6,587,1,0,2,3,NaN
6,588,2,0,1,2,584
6,589,1,0,2,2,392
6,589,1,0,2,0,NaN
6,591,2,0,2,0,NaN
6,591,2,0,2,0,NaN
6,591,2,0,2,1,409
6,594,2,0,1,3,NaN
6,594,2,0,1,3,NaN
6,598,2,0,2,0,NaN
6,599,1,0,2,3,NaN
6,600,2,0,1,2,500
6,600,2,0,1,0,NaN
7,2,2,0,2,0,NaN
7,2,2,0,2,0,NaN
7,2,2,0,2,1,792
7,3,1,0,2,3,NaN
7,6,2,0,2,0,NaN
7,6,2,0,2,1,517
7,6,2,0,1,0,NaN
7,7,2,0,1,3,NaN
7,7,2,0,1,3,NaN
7,8,1,0,1,1,691
7,8,1,0,2,0,NaN
7,8,1,0,2,0,NaN
7,11,1,0,1,0,NaN
7,11,1,0,1,1,575
7,13,1,0,2,3,NaN
7,14,2,0,2,1,550
7,15,1,0,2,0,NaN
7,15,1,0,1,1,576
7,17,1,0,1,0,NaN
7,17,1,0,1,1,524
7,18,2,0,1,2,800
7,19,1,0,1,1,809
7,19,1,0,2,0,NaN
7,20,1,0,1,1,616
7,24,1,0,2,0,NaN
7,24,1,0,1,1,500
7,25,2,0,2,0,NaN
7,25,2,0,2,1,508
7,26,1,0,1,0,NaN
7,26,1,0,1,1,467
7,28,2,0,2,1,533
7,29,2,0,1,3,NaN
7,30,1,0,2,3,NaN
7,31,2,0,2,1,693
7,31,2,0,1,0,NaN
7,32,2,0,2,0,NaN
7,32,2,0,2,1,500
7,33,2,0,2,0,NaN
7,33,2,0,2,0,NaN
7,33,2,0,2,1,617
7,34,2,0,1,0,NaN
7,34,2,0,2,1,592
7,39,1,0,2,3,NaN
7,39,1,0,2,3,NaN
7,40,2,0,2,0,NaN
7,40,2,0,1,2,534
7,41,1,0,2,0,NaN
7,41,1,0,1,1,708
7,42,2,0,1,3,NaN
7,43,2,0,2,1,682
7,44,1,0,1,0,NaN
7,44,1,0,1,1,642
7,45,1,0,2,3,NaN
7,45,1,0,1,0,NaN
7,46,1,0,2,2,683
7,46,1,0,2,0,NaN
7,47,1,0,2,0,NaN
7,47,1,0,1,1,667
7,50,2,0,2,0,NaN
7,50,2,0,2,0,NaN
7,50,2,0,2,1,409
7,51,1,0,1,0,NaN
7,51,1,0,1,1,458
7,53,1,0,1,1,726
7,54,2,0,1,0,NaN
7,54,2,0,2,0,NaN
7,54,2,0,2,1,517
7,58,2,0,1,3,NaN
7,59,2,0,2,0,NaN
7,59,2,0,1,0,NaN
7,59,2,0,2,1,525
7,60,1,0,2,2,625
7,60,1,0,2,0,NaN
7,60,1,0,2,0,NaN
7,64,1,0,1,0,NaN
7,64,1,0,2,0,NaN
7,64,1,0,1,1,634
7,65,1,0,1,0,NaN
7,65,1,0,1,1,549
7,68,2,0,2,0,NaN
7,68,2,0,2,0,NaN
7,68,2,0,2,1,483
7,69,2,0,2,0,NaN
7,69,2,0,2,0,NaN
7,69,2,0,2,1,575
7,70,1,0,1,1,542
7,70,1,0,2,0,NaN
7,71,2,0,2,1,733
7,72,2,0,1,0,NaN
7,72,2,0,2,1,809
7,73,2,0,1,3,NaN
7,73,2,0,1,3,NaN
7,73,2,0,1,3,NaN
7,77,1,0,2,2,641
7,77,1,0,2,0,NaN
7,78,2,0,1,3,NaN
7,78,2,0,1,3,NaN
7,78,2,0,1,3,NaN
7,79,2,0,2,1,858
7,80,2,0,2,0,NaN
7,80,2,0,1,0,NaN
7,81,2,0,2,1,709
7,82,1,0,2,0,NaN
7,82,1,0,2,0,NaN
7,82,1,0,1,1,667
7,83,2,0,1,3,NaN
7,83,2,0,1,3,NaN
7,83,2,0,1,3,NaN
7,85,1,0,1,0,NaN
7,85,1,0,2,0,NaN
7,86,1,0,1,1,617
7,86,1,0,2,0,NaN
7,88,1,0,1,0,NaN
7,88,1,0,1,1,517
7,88,1,0,2,0,NaN
7,92,2,0,1,3,NaN
7,95,1,0,2,3,NaN
7,96,1,0,1,0,NaN
7,96,1,0,2,0,NaN
7,97,1,0,2,3,NaN
7,100,2,0,1,3,NaN
7,102,1,0,1,1,676
7,107,1,0,2,0,NaN
7,107,1,0,1,1,649
7,108,1,0,2,3,NaN
7,108,1,0,2,3,NaN
7,110,1,0,1,1,868
7,110,1,0,1,0,NaN
7,110,1,0,2,0,NaN
7,112,2,0,1,0,NaN
7,112,2,0,2,1,725
7,113,2,0,2,1,708
7,113,2,0,1,0,NaN
7,116,2,0,2,1,816
7,116,2,0,1,0,NaN
7,117,2,0,2,0,NaN
7,117,2,0,2,1,583
7,120,2,0,1,0,NaN
7,120,2,0,2,1,825
7,122,1,0,1,1,700
7,122,1,0,2,0,NaN
7,124,2,0,2,0,NaN
7,124,2,0,2,0,NaN
7,124,2,0,2,1,392
7,125,2,0,2,0,NaN
7,125,2,0,2,0,NaN
7,125,2,0,2,1,484
7,126,1,0,1,1,517
7,126,1,0,2,0,NaN
7,127,2,0,1,3,NaN
7,127,2,0,1,3,NaN
7,131,2,0,2,1,467
7,131,2,0,1,0,NaN
7,133,2,0,2,0,NaN
7,133,2,0,2,1,441
7,134,1,0,2,0,NaN
7,134,1,0,1,1,616
7,135,2,0,1,3,NaN
7,136,2,0,1,3,NaN
7,139,1,0,2,3,NaN
7,140,1,0,2,3,NaN
7,140,1,0,2,3,NaN
7,142,1,0,1,0,NaN
7,142,1,0,2,2,550
7,146,1,0,1,1,600
7,147,1,0,1,1,550
7,147,1,0,2,0,NaN
7,148,2,0,1,0,NaN
7,148,2,0,1,2,724
7,149,1,0,1,0,NaN
7,149,1,0,1,1,450
7,150,1,0,2,2,492
7,150,1,0,2,0,NaN
7,153,1,0,1,1,716
7,154,1,0,1,1,725
7,154,1,0,2,0,NaN
7,154,1,0,2,0,NaN
7,155,1,0,1,0,NaN
7,155,1,0,2,0,NaN
7,155,1,0,1,1,817
7,157,1,0,2,0,NaN
7,157,1,0,1,0,NaN
7,157,1,0,1,1,542
7,158,2,0,2,0,NaN
7,158,2,0,1,2,449
7,158,2,0,1,0,NaN
7,160,1,0,1,0,NaN
7,160,1,0,2,0,NaN
7,160,1,0,1,1,576
7,161,1,0,2,0,NaN
7,161,1,0,2,0,NaN
7,162,2,0,1,3,NaN
7,162,2,0,1,3,NaN
7,163,2,0,1,3,NaN
7,163,2,0,1,3,NaN
7,165,1,0,2,0,NaN
7,165,1,0,2,0,NaN
7,165,1,0,1,1,625
7,166,2,0,1,0,NaN
7,166,2,0,2,1,558
7,167,2,0,1,2,800
7,167,2,0,1,0,NaN
7,168,1,0,1,1,633
7,170,2,0,2,1,875
7,170,2,0,1,0,NaN
7,170,2,0,1,0,NaN
7,172,2,0,1,3,NaN
7,173,2,0,1,3,NaN
7,173,2,0,1,3,NaN
7,174,1,0,2,3,NaN
7,176,2,0,1,0,NaN
7,176,2,0,2,1,742
7,177,1,0,1,1,566
7,177,1,0,2,0,NaN
7,177,1,0,2,0,NaN
7,179,2,0,1,0,NaN
7,179,2,0,1,0,NaN
7,183,2,0,1,0,NaN
7,183,2,0,2,0,NaN
7,183,2,0,2,1,432
7,186,2,0,2,0,NaN
7,186,2,0,2,1,516
7,186,2,0,1,0,NaN
7,188,1,0,1,0,NaN
7,188,1,0,1,0,NaN
7,188,1,0,1,1,591
7,189,1,0,2,2,568
7,189,1,0,2,0,NaN
7,190,2,0,2,1,792
7,190,2,0,1,0,NaN
7,191,1,0,1,0,NaN
7,191,1,0,1,1,633
7,192,2,0,1,3,NaN
7,193,1,0,1,0,NaN
7,193,1,0,1,0,NaN
7,193,1,0,2,2,450
7,195,2,0,1,3,NaN
7,195,2,0,1,3,NaN
7,196,1,0,2,3,NaN
7,197,2,0,1,2,875
7,202,1,0,2,0,NaN
7,202,1,1,1,1,508
7,203,1,0,2,3,NaN
7,204,2,0,1,0,NaN
7,204,2,0,1,0,NaN
7,204,2,1,2,1,625
7,205,2,0,2,0,NaN
7,205,2,0,2,1,508
7,207,2,0,1,0,NaN
7,207,2,0,2,0,NaN
7,207,2,0,2,1,441
7,211,2,1,2,1,618
7,213,2,0,1,0,NaN
7,213,2,0,2,1,466
7,214,1,0,2,3,NaN
7,216,1,0,2,0,NaN
7,216,1,0,1,1,466
7,218,2,0,1,3,NaN
7,218,2,0,1,3,NaN
7,221,2,0,1,3,NaN
7,221,2,0,1,3,NaN
7,221,2,0,1,3,NaN
7,222,1,0,1,1,634
7,224,2,1,2,0,NaN
7,224,2,0,2,1,508
7,225,2,1,2,0,NaN
7,225,2,0,2,1,517
7,225,2,0,1,0,NaN
7,226,2,0,2,0,NaN
7,226,2,0,2,1,467
7,226,2,0,1,0,NaN
7,227,2,0,1,3,NaN
7,227,2,0,1,3,NaN
7,227,2,0,1,3,NaN
7,229,2,0,1,0,NaN
7,229,2,0,2,1,683
7,230,1,1,1,0,NaN
7,230,1,0,2,0,NaN
7,230,1,0,1,1,608
7,231,1,0,2,3,NaN
7,232,1,0,2,0,NaN
7,232,1,0,2,0,NaN
7,232,1,1,1,1,584
7,233,1,0,2,0,NaN
7,233,1,0,1,1,575
7,234,1,0,2,0,NaN
7,234,1,1,1,1,625
7,235,2,0,2,0,NaN
7,235,2,0,2,1,433
7,237,2,0,2,1,592
7,237,2,0,1,0,NaN
7,238,1,0,1,1,717
7,238,1,0,2,0,NaN
7,242,1,1,1,1,625
7,242,1,0,2,0,NaN
7,243,1,0,2,3,NaN
7,243,1,0,2,3,NaN
7,246,1,0,2,3,NaN
7,250,1,0,2,0,NaN
7,250,1,1,1,1,825
7,251,2,0,2,0,NaN
7,251,2,0,1,0,NaN
7,251,2,0,2,1,558
7,258,1,0,2,3,NaN
7,258,1,1,1,0,NaN
7,259,2,0,1,0,NaN
7,259,2,0,2,1,542
7,260,2,0,1,3,NaN
7,260,2,0,1,3,NaN
7,263,1,0,1,0,NaN
7,264,1,0,2,0,NaN
7,264,1,1,1,0,NaN
7,264,1,0,1,1,575
7,265,2,0,2,1,633
7,267,2,1,2,1,658
7,267,2,0,1,0,NaN
7,269,1,1,1,0,NaN
7,269,1,0,2,2,759
7,271,1,1,1,0,NaN
7,271,1,1,1,0,NaN
7,271,1,1,1,1,432
7,273,1,0,2,0,NaN
7,273,1,1,1,1,667
7,273,1,0,2,0,NaN
7,274,2,0,1,3,NaN
7,276,1,1,1,0,NaN
7,276,1,0,2,2,584
7,276,1,0,2,0,NaN
7,277,1,1,1,1,584
7,277,1,1,1,0,NaN
7,278,2,0,2,1,633
7,279,1,0,2,3,NaN
7,279,1,0,2,3,NaN
7,279,1,0,2,3,NaN
7,281,1,0,2,0,NaN
7,281,1,0,1,1,583
7,282,2,0,1,3,NaN
7,283,1,1,1,1,734
7,285,1,1,1,0,NaN
7,285,1,1,1,1,583
7,286,2,0,2,1,533
7,287,2,0,1,3,NaN
7,289,2,0,1,0,NaN
7,289,2,0,2,1,566
7,290,1,0,1,0,NaN
7,290,1,0,1,1,567
7,291,1,0,2,2,467
7,292,1,0,2,3,NaN
7,293,2,0,1,0,NaN
7,293,2,0,2,1,717
7,294,2,0,1,0,NaN
7,294,2,0,1,0,NaN
7,294,2,0,2,1,684
7,297,1,0,2,2,732
7,298,1,1,1,1,708
7,298,1,0,2,0,NaN
7,299,2,0,1,3,NaN
7,301,1,0,2,0,NaN
7,301,1,0,2,0,NaN
7,301,1,1,1,1,583
7,303,2,0,1,3,NaN
7,304,2,0,1,0,NaN
7,304,2,0,1,0,NaN
7,304,2,0,2,1,484
7,306,2,0,2,0,NaN
7,306,2,0,1,0,NaN
7,306,2,0,2,1,575
7,308,1,0,2,3,NaN
7,309,1,1,1,0,NaN
7,309,1,1,1,1,534
7,310,1,0,2,0,NaN
7,310,1,0,2,0,NaN
7,310,1,1,1,1,500
7,311,2,0,1,3,NaN
7,312,1,0,1,0,NaN
7,312,1,1,1,1,599
7,314,1,0,2,0,NaN
7,314,1,1,1,1,542
7,314,1,0,2,0,NaN
7,318,1,1,1,0,NaN
7,318,1,0,2,2,609
7,320,2,0,2,1,708
7,320,2,0,1,0,NaN
7,321,1,0,2,3,NaN
7,322,1,1,1,1,566
7,324,1,1,1,0,NaN
7,324,1,0,2,0,NaN
7,324,1,1,1,1,634
7,325,2,0,2,1,599
7,325,2,0,1,0,NaN
7,326,2,0,1,3,NaN
7,326,2,0,1,3,NaN
7,327,2,0,2,1,658
7,328,2,1,2,0,NaN
7,328,2,0,2,0,NaN
7,328,2,0,1,2,508
7,332,2,0,2,0,NaN
7,332,2,1,2,1,617
7,333,1,0,2,0,NaN
7,333,1,0,2,0,NaN
7,334,2,0,1,3,NaN
7,335,2,0,1,3,NaN
7,335,2,0,1,3,NaN
7,335,2,0,1,3,NaN
7,336,1,0,2,0,NaN
7,336,1,1,1,0,NaN
7,336,1,1,1,1,542
7,340,2,0,1,0,NaN
7,340,2,0,2,0,NaN
7,340,2,0,2,1,476
7,341,2,0,2,1,608
7,343,1,1,1,0,NaN
7,343,1,0,2,2,451
7,344,1,0,2,3,NaN
7,347,2,1,2,0,NaN
7,350,1,0,2,0,NaN
7,350,1,1,1,1,533
7,350,1,0,2,0,NaN
7,352,2,0,1,3,NaN
7,353,1,1,1,1,717
7,353,1,0,2,0,NaN
7,361,2,0,1,3,NaN
7,364,1,0,2,3,NaN
7,364,1,0,2,3,NaN
7,365,1,0,2,3,NaN
7,365,1,0,2,3,NaN
7,365,1,0,2,3,NaN
7,366,2,0,2,0,NaN
7,366,2,0,2,1,483
7,368,1,1,1,0,NaN
7,368,1,1,1,1,559
7,369,2,0,2,1,774
7,369,2,0,1,0,NaN
7,370,2,0,1,0,NaN
7,370,2,0,2,1,550
7,371,2,0,2,0,NaN
7,371,2,1,2,0,NaN
7,371,2,0,2,1,559
7,373,2,0,1,3,NaN
7,373,2,0,1,3,NaN
7,374,1,1,1,0,NaN
7,374,1,1,1,1,484
7,374,1,0,2,0,NaN
7,375,1,0,2,0,NaN
7,375,1,1,1,0,NaN
7,375,1,1,1,1,692
7,376,2,0,1,0,NaN
7,376,2,0,2,1,459
7,377,1,1,1,0,NaN
7,377,1,1,1,1,625
7,378,1,0,2,3,NaN
7,381,1,1,1,0,NaN
7,381,1,0,1,0,NaN
7,381,1,1,1,1,459
7,382,2,0,2,0,NaN
7,382,2,0,2,1,449
7,382,2,0,1,0,NaN
7,385,2,0,2,1,800
7,385,2,0,1,0,NaN
7,386,2,0,2,1,483
7,386,2,0,1,0,NaN
7,386,2,0,1,0,NaN
7,387,2,0,1,0,NaN
7,387,2,1,2,0,NaN
7,387,2,1,2,1,567
7,389,2,0,1,0,NaN
7,389,2,1,2,1,558
7,390,1,0,2,3,NaN
7,393,2,0,1,0,NaN
7,393,2,0,2,1,483
7,394,1,0,2,3,NaN
7,395,2,0,1,3,NaN
7,396,1,1,1,1,525
7,396,1,0,2,0,NaN
7,397,2,0,2,0,NaN
7,397,2,0,2,1,476
7,398,2,0,1,0,NaN
7,398,2,0,2,1,584
7,400,1,1,1,0,NaN
7,400,1,1,1,1,567
7,401,1,0,2,0,NaN
7,401,1,0,1,1,667
7,402,2,0,1,0,NaN
7,402,2,0,2,1,542
7,403,2,0,2,0,NaN
7,403,2,0,2,1,442
7,404,1,0,1,0,NaN
7,404,1,0,2,2,325
7,406,2,0,2,0,NaN
7,406,2,0,2,1,500
7,406,2,0,1,0,NaN
7,407,1,0,2,2,483
7,407,1,0,2,0,NaN
7,408,2,0,2,1,550
7,408,2,0,1,0,NaN
7,408,2,0,1,0,NaN
7,409,1,0,1,1,625
7,409,1,0,2,0,NaN
7,411,2,0,1,3,NaN
7,412,1,0,1,1,676
7,413,1,0,2,0,NaN
7,413,1,0,1,1,508
7,413,1,0,2,0,NaN
7,420,2,0,2,1,549
7,422,1,0,1,0,NaN
7,422,1,0,1,1,458
7,422,1,0,1,0,NaN
7,425,2,0,1,0,NaN
7,425,2,0,2,0,NaN
7,425,2,0,2,1,500
7,426,1,0,2,0,NaN
7,426,1,0,1,0,NaN
7,426,1,0,1,1,483
7,427,1,0,1,1,833
7,429,1,0,2,3,NaN
7,430,1,0,2,3,NaN
7,432,2,0,2,1,584
7,433,1,0,1,1,650
7,435,2,0,2,0,NaN
7,435,2,0,2,1,492
7,437,1,0,1,0,NaN
7,437,1,0,2,2,557
7,438,1,0,1,1,558
7,439,2,0,2,0,NaN
7,439,2,0,1,2,541
7,439,2,0,1,0,NaN
7,442,1,0,1,1,650
7,442,1,0,2,0,NaN
7,444,1,0,1,0,NaN
7,444,1,0,1,0,NaN
7,444,1,0,1,1,425
7,445,2,0,2,0,NaN
7,445,2,0,2,0,NaN
7,445,2,0,2,1,601
7,446,2,0,2,0,NaN
7,446,2,0,2,1,417
7,448,2,0,2,1,441
7,450,2,0,1,3,NaN
7,450,2,0,1,3,NaN
7,452,1,0,2,2,600
7,452,1,0,2,0,NaN
7,453,1,0,1,1,667
7,454,1,0,2,0,NaN
7,454,1,0,2,0,NaN
7,454,1,0,1,1,650
7,455,2,0,2,0,NaN
7,455,2,0,1,0,NaN
7,457,1,0,2,0,NaN
7,457,1,0,1,1,517
7,457,1,0,2,0,NaN
7,461,1,0,1,0,NaN
7,461,1,0,1,0,NaN
7,461,1,0,1,1,500
7,462,2,0,2,0,NaN
7,462,2,0,2,1,558
7,463,2,0,1,3,NaN
7,463,2,0,1,3,NaN
7,464,1,0,2,0,NaN
7,466,1,0,2,0,NaN
7,467,2,0,1,3,NaN
7,470,1,0,1,0,NaN
7,470,1,0,2,2,483
7,470,1,0,2,0,NaN
7,475,1,0,1,0,NaN
7,475,1,0,2,2,525
7,475,1,0,2,0,NaN
7,476,1,0,2,0,NaN
7,476,1,0,1,1,525
7,476,1,0,2,0,NaN
7,477,1,0,1,0,NaN
7,477,1,0,1,1,542
7,480,2,0,2,1,632
7,480,2,0,1,0,NaN
7,480,2,0,1,0,NaN
7,482,1,0,2,3,NaN
7,483,2,0,2,0,NaN
7,483,2,0,1,0,NaN
7,484,2,0,2,0,NaN
7,484,2,0,2,1,417
7,486,1,0,1,1,759
7,489,1,0,2,3,NaN
7,489,1,0,2,3,NaN
7,491,1,0,1,0,NaN
7,491,1,0,1,1,467
7,492,2,0,2,1,483
7,492,2,0,1,0,NaN
7,492,2,0,1,0,NaN
7,493,1,0,2,3,NaN
7,495,1,0,2,3,NaN
7,496,2,0,2,0,NaN
7,496,2,0,2,0,NaN
7,496,2,0,2,1,517
7,498,1,0,1,1,717
7,500,2,0,2,0,NaN
7,500,2,0,1,0,NaN
7,500,2,0,1,2,342
7,501,2,0,1,0,NaN
7,501,2,0,1,0,NaN
7,501,2,0,2,1,667
7,502,1,0,2,2,466
7,502,1,0,2,0,NaN
7,502,1,0,2,0,NaN
7,503,2,0,2,0,NaN
7,503,2,0,2,0,NaN
7,503,2,0,2,1,408
7,504,1,0,1,1,609
7,504,1,0,2,0,NaN
7,504,1,0,2,0,NaN
7,507,2,0,1,3,NaN
7,507,2,0,1,3,NaN
7,508,1,0,1,0,NaN
7,508,1,0,2,2,292
7,509,1,0,1,0,NaN
7,511,2,0,1,0,NaN
7,511,2,0,2,1,601
7,511,2,0,1,0,NaN
7,513,1,0,2,0,NaN
7,513,1,0,1,1,541
7,514,1,0,1,0,NaN
7,514,1,0,1,1,517
7,514,1,0,2,0,NaN
7,516,2,0,2,0,NaN
7,516,2,0,2,1,459
7,518,2,0,2,1,524
7,519,2,0,1,3,NaN
7,519,2,0,1,3,NaN
7,522,2,0,1,3,NaN
7,523,1,0,2,3,NaN
7,523,1,0,2,3,NaN
7,525,2,0,1,0,NaN
7,525,2,0,1,0,NaN
7,526,2,0,2,1,516
7,527,2,0,2,1,700
7,527,2,0,1,0,NaN
7,529,2,0,2,0,NaN
7,529,2,0,2,1,458
7,529,2,0,1,0,NaN
7,530,2,0,2,1,834
7,530,2,0,1,0,NaN
7,531,1,0,2,0,NaN
7,531,1,0,1,1,591
7,532,1,0,2,3,NaN
7,533,2,0,2,1,758
7,533,2,0,1,0,NaN
7,535,2,0,1,3,NaN
7,535,2,0,1,3,NaN
7,535,2,0,1,3,NaN
7,537,1,0,1,0,NaN
7,537,1,0,1,0,NaN
7,537,1,0,2,2,808
7,538,2,0,1,3,NaN
7,540,1,0,2,0,NaN
7,540,1,0,1,0,NaN
7,540,1,0,1,1,459
7,543,2,0,1,0,NaN
7,543,2,0,2,1,557
7,544,1,0,1,0,NaN
7,544,1,0,1,0,NaN
7,544,1,0,1,1,442
7,545,1,0,1,0,NaN
7,545,1,0,1,0,NaN
7,545,1,0,1,1,517
7,546,2,0,2,1,625
7,547,2,0,1,3,NaN
7,549,1,0,1,0,NaN
7,550,1,0,2,2,692
7,550,1,0,2,0,NaN
7,551,2,0,1,3,NaN
7,552,1,0,2,0,NaN
7,552,1,0,1,1,500
7,554,2,0,1,3,NaN
7,554,2,0,1,3,NaN
7,556,2,0,2,0,NaN
7,557,1,0,2,3,NaN
7,557,1,0,2,3,NaN
7,557,1,0,2,3,NaN
7,559,2,0,1,3,NaN
7,560,2,0,1,3,NaN
7,560,2,0,1,3,NaN
7,561,1,0,1,0,NaN
7,561,1,0,1,1,550
7,565,1,0,2,0,NaN
7,565,1,0,1,1,558
7,567,1,0,1,1,691
7,567,1,0,2,0,NaN
7,570,2,0,2,1,701
7,571,2,0,2,1,576
7,572,2,0,2,0,NaN
7,572,2,0,2,1,459
7,573,2,0,2,0,NaN
7,573,2,0,1,2,750
7,574,2,0,1,0,NaN
7,574,2,0,2,1,442
7,579,2,0,2,1,616
7,579,2,0,1,0,NaN
7,579,2,0,1,0,NaN
7,582,1,0,1,1,608
7,582,1,0,2,0,NaN
7,583,2,0,1,0,NaN
7,583,2,0,2,1,566
7,583,2,0,1,0,NaN
7,585,1,0,2,0,NaN
7,585,1,0,1,1,542
7,586,1,0,2,3,NaN
7,588,1,0,2,3,NaN
7,588,1,0,2,3,NaN
7,588,1,0,2,3,NaN
7,592,2,0,2,0,NaN
7,592,2,0,2,1,458
7,593,2,0,1,3,NaN
7,593,2,0,1,3,NaN
7,593,2,0,1,3,NaN
7,594,2,0,2,1,616
7,596,1,0,2,0,NaN
7,596,1,0,1,1,767
7,598,2,0,1,0,NaN
7,598,2,0,1,0,NaN
7,598,2,0,2,1,717
7,599,1,0,1,0,NaN
7,600,2,0,1,3,NaN
8,2,2,0,1,3,NaN
8,3,1,0,1,1,608
8,5,1,0,1,1,549
8,7,2,0,2,0,NaN
8,7,2,0,2,0,NaN
8,7,2,0,2,1,591
8,8,1,0,2,2,367
8,10,2,0,2,0,NaN
8,10,2,0,2,1,483
8,10,2,0,1,0,NaN
8,11,1,0,1,1,450
8,12,2,0,2,0,NaN
8,12,2,0,2,0,NaN
8,12,2,0,2,1,442
8,15,1,0,1,0,NaN
8,15,1,0,1,1,541
8,16,1,0,2,0,NaN
8,16,1,0,2,0,NaN
8,18,2,0,1,3,NaN
8,18,2,0,1,3,NaN
8,21,1,0,1,0,NaN
8,21,1,0,2,0,NaN
8,24,1,0,2,3,NaN
8,28,1,0,2,3,NaN
8,28,1,0,2,3,NaN
8,28,1,0,2,3,NaN
8,29,1,0,2,3,NaN
8,29,1,0,2,3,NaN
8,30,1,0,1,0,NaN
8,30,1,0,1,1,467
8,31,1,0,1,1,691
8,31,1,0,2,0,NaN
8,33,2,0,2,0,NaN
8,33,2,0,2,1,358
8,33,2,0,1,0,NaN
8,36,1,0,1,0,NaN
8,36,1,0,1,1,507
8,38,1,0,2,0,NaN
8,38,1,0,1,1,551
8,41,1,0,2,2,508
8,42,1,0,2,0,NaN
8,42,1,0,2,0,NaN
8,42,1,0,1,1,551
8,43,1,0,1,0,NaN
8,43,1,0,1,1,392
8,44,1,0,1,0,NaN
8,44,1,0,2,3,NaN
8,46,1,0,1,1,599
8,47,1,0,2,0,NaN
8,47,1,0,2,0,NaN
8,47,1,0,1,1,425
8,48,2,0,1,3,NaN
8,49,1,0,2,3,NaN
8,49,1,0,2,3,NaN
8,51,1,0,1,1,566
8,54,1,0,1,0,NaN
8,54,1,0,1,0,NaN
8,54,1,0,1,1,459
8,55,2,0,1,0,NaN
8,55,2,0,2,1,558
8,56,2,0,1,3,NaN
8,57,1,0,2,2,467
8,59,2,0,2,0,NaN
8,59,2,0,2,1,416
8,59,2,0,1,0,NaN
8,62,2,0,1,0,NaN
8,62,2,0,2,0,NaN
8,66,2,0,2,0,NaN
8,66,2,0,2,1,391
8,66,2,0,1,0,NaN
8,67,1,0,2,0,NaN
8,67,1,0,2,2,451
8,74,2,0,1,3,NaN
8,74,2,0,1,3,NaN
8,74,2,0,1,3,NaN
8,75,1,0,2,0,NaN
8,75,1,0,1,1,366
8,76,1,0,2,0,NaN
8,76,1,0,1,1,391
8,78,2,0,1,3,NaN
8,79,2,0,2,0,NaN
8,80,2,0,1,0,NaN
8,80,2,0,2,0,NaN
8,83,2,0,2,0,NaN
8,83,2,0,2,1,483
8,84,1,0,1,0,NaN
8,84,1,0,1,0,NaN
8,84,1,0,1,1,492
8,85,1,0,2,2,416
8,85,1,0,2,0,NaN
8,86,2,0,2,0,NaN
8,86,2,0,2,1,550
8,86,2,0,1,0,NaN
8,87,2,0,1,3,NaN
8,88,1,0,1,0,NaN
8,88,1,0,1,1,408
8,89,2,0,2,0,NaN
8,89,2,0,2,1,459
8,90,2,0,2,0,NaN
8,90,2,0,2,1,466
8,92,1,0,2,0,NaN
8,92,1,0,1,0,NaN
8,92,1,0,1,0,NaN
8,93,1,0,1,0,NaN
8,93,1,0,2,2,417
8,94,2,0,2,0,NaN
8,94,2,0,2,1,699
8,95,1,0,1,0,NaN
8,95,1,0,1,0,NaN
8,95,1,0,1,0,NaN
8,96,1,0,1,0,NaN
8,96,1,0,1,0,NaN
8,96,1,0,1,1,583
8,97,2,0,2,1,458
8,97,2,0,1,0,NaN
8,98,2,0,2,1,358
8,99,1,0,2,0,NaN
8,99,1,0,1,1,467
8,99,1,0,2,0,NaN
8,104,1,0,2,0,NaN
8,104,1,0,1,1,416
8,107,1,0,2,3,NaN
8,107,1,0,2,3,NaN
8,109,2,0,1,3,NaN
8,109,2,0,1,3,NaN
8,110,2,0,1,3,NaN
8,111,2,0,1,0,NaN
8,111,2,0,1,0,NaN
8,111,2,0,2,1,425
8,112,1,0,2,2,466
8,113,2,0,2,0,NaN
8,113,2,0,2,1,642
8,114,1,0,2,3,NaN
8,114,1,0,2,3,NaN
8,114,1,0,2,3,NaN
8,115,2,0,2,1,425
8,116,1,0,1,0,NaN
8,116,1,0,2,0,NaN
8,116,1,0,1,1,450
8,118,2,0,2,0,NaN
8,118,2,0,1,0,NaN
8,118,2,0,2,1,459
8,119,1,0,2,3,NaN
8,119,1,0,2,3,NaN
8,122,1,0,2,3,NaN
8,122,1,0,2,3,NaN
8,123,2,0,2,1,425
8,123,2,0,1,0,NaN
8,124,2,0,1,0,NaN
8,124,2,0,1,0,NaN
8,125,2,0,1,3,NaN
8,127,1,0,1,1,508
8,128,2,0,2,1,867
8,133,2,0,1,3,NaN
8,135,2,0,1,0,NaN
8,135,2,0,2,1,417
8,135,2,0,1,0,NaN
8,136,2,0,2,1,450
8,136,2,0,1,0,NaN
8,136,2,0,1,0,NaN
8,137,2,0,1,3,NaN
8,139,1,0,1,0,NaN
8,139,1,0,1,1,517
8,139,1,0,2,0,NaN
8,140,1,0,2,0,NaN
8,140,1,0,2,2,592
8,140,1,0,1,0,NaN
8,142,1,0,1,0,NaN
8,142,1,0,2,0,NaN
8,143,2,0,2,1,408
8,143,2,0,1,0,NaN
8,147,2,0,2,0,NaN
8,147,2,0,1,0,NaN
8,147,2,0,2,1,484
8,149,1,0,1,1,491
8,151,2,0,1,0,NaN
8,151,2,0,2,1,642
8,153,2,0,1,0,NaN
8,153,2,0,2,1,325
8,154,2,0,1,3,NaN
8,156,2,0,1,0,NaN
8,156,2,0,1,0,NaN
8,156,2,0,2,1,458
8,157,1,0,1,0,NaN
8,157,1,0,1,1,475
8,158,1,0,2,2,425
8,158,1,0,2,0,NaN
8,159,1,0,2,3,NaN
8,160,1,0,2,0,NaN
8,160,1,0,1,0,NaN
8,160,1,0,1,1,466
8,161,2,0,2,0,NaN
8,161,2,0,2,1,550
8,161,2,0,1,0,NaN
8,162,2,0,1,0,NaN
8,162,2,0,2,1,425
8,163,2,0,1,0,NaN
8,163,2,0,2,1,408
8,163,2,0,1,0,NaN
8,164,1,0,2,2,517
8,165,1,0,2,3,NaN
8,166,2,0,1,3,NaN
8,166,2,0,1,3,NaN
8,167,2,0,2,1,808
8,168,2,0,1,3,NaN
8,169,2,0,1,0,NaN
8,169,2,0,2,1,458
8,170,1,0,1,1,458
8,170,1,0,2,0,NaN
8,172,2,0,2,0,NaN
8,172,2,0,2,1,466
8,172,2,0,1,0,NaN
8,173,2,0,2,1,410
8,175,1,0,2,0,NaN
8,175,1,0,2,2,650
8,177,2,0,2,1,466
8,179,1,0,1,0,NaN
8,179,1,0,2,2,424
8,181,1,0,2,0,NaN
8,181,1,0,2,0,NaN
8,181,1,0,1,1,433
8,182,2,0,1,3,NaN
8,182,2,0,1,3,NaN
8,183,2,0,1,3,NaN
8,184,2,0,1,0,NaN
8,184,2,0,1,0,NaN
8,186,1,0,1,1,475
8,188,2,0,2,0,NaN
8,188,2,0,2,1,567
8,189,2,0,1,3,NaN
8,189,2,0,1,3,NaN
8,189,2,0,1,3,NaN
8,191,2,0,2,0,NaN
8,191,2,0,1,0,NaN
8,191,2,0,2,1,458
8,194,1,0,2,0,NaN
8,194,1,0,1,1,875
8,194,1,0,1,0,NaN
8,200,1,0,1,0,NaN
8,200,1,0,1,1,417
8,202,1,0,2,0,NaN
8,202,1,0,1,1,508
8,204,2,0,1,0,NaN
8,204,2,0,1,0,NaN
8,204,2,1,2,1,566
8,205,1,0,1,1,449
8,205,1,0,2,0,NaN
8,205,1,0,2,0,NaN
8,206,1,0,1,1,567
8,207,1,0,2,3,NaN
8,210,2,0,1,3,NaN
8,210,2,0,1,3,NaN
8,211,1,0,2,3,NaN
8,214,2,0,1,3,NaN
8,215,2,1,2,0,NaN
8,215,2,0,1,3,NaN
8,215,2,0,1,3,NaN
8,217,1,0,1,1,566
8,217,1,0,2,0,NaN
8,217,1,0,2,0,NaN
8,218,2,0,1,3,NaN
8,219,2,1,2,0,NaN
8,219,2,0,2,1,625
8,221,1,0,2,2,558
8,221,1,0,2,0,NaN
8,223,1,0,1,1,625
8,223,1,0,2,0,NaN
8,223,1,0,2,0,NaN
8,225,2,0,1,3,NaN
8,228,1,0,1,1,541
8,229,1,0,1,1,450
8,231,2,1,2,1,434
8,232,2,0,1,0,NaN
8,232,2,1,2,1,400
8,232,2,0,1,0,NaN
8,233,1,0,2,2,509
8,234,2,1,2,0,NaN
8,234,2,0,1,0,NaN
8,234,2,0,2,1,450
8,235,1,0,1,0,NaN
8,235,1,0,2,2,450
8,236,1,0,2,3,NaN
8,236,1,0,2,3,NaN
8,238,1,0,1,1,574
8,240,1,1,1,1,534
8,240,1,0,2,0,NaN
8,241,1,0,2,0,NaN
8,241,1,1,1,1,500
8,243,1,0,1,0,NaN
8,243,1,0,2,0,NaN
8,243,1,0,1,1,458
8,244,2,1,2,0,NaN
8,244,2,1,2,0,NaN
8,244,2,1,2,1,509
8,247,2,0,2,0,NaN
8,247,2,1,2,1,442
8,250,1,0,2,3,NaN
8,253,2,0,1,3,NaN
8,253,2,0,1,3,NaN
8,253,2,0,1,3,NaN
8,254,1,1,1,1,525
8,256,2,0,1,3,NaN
8,259,2,0,2,1,400
8,260,1,0,2,0,NaN
8,260,1,0,1,1,467
8,261,2,1,2,0,NaN
8,261,2,1,2,1,525
8,263,1,0,2,3,NaN
8,263,1,0,2,3,NaN
8,264,1,0,2,0,NaN
8,264,1,1,1,1,575
8,265,1,0,1,1,475
8,265,1,0,2,0,NaN
8,266,2,1,2,1,592
8,266,2,0,1,0,NaN
8,266,2,0,1,0,NaN
8,267,2,0,1,0,NaN
8,267,2,1,2,1,451
8,269,1,0,2,2,417
8,271,1,1,1,1,517
8,272,2,0,1,3,NaN
8,274,2,1,2,0,NaN
8,274,2,1,2,1,450
8,274,2,0,1,0,NaN
8,275,1,0,1,1,483
8,279,2,0,1,3,NaN
8,279,2,1,2,0,NaN
8,281,1,0,2,0,NaN
8,281,1,1,1,0,NaN
8,281,1,1,1,1,450
8,282,2,0,1,3,NaN
8,284,2,1,2,1,467
8,284,2,0,1,0,NaN
8,284,2,0,1,0,NaN
8,285,2,0,1,3,NaN
8,290,2,0,1,0,NaN
8,290,2,0,1,2,725
8,291,2,0,1,0,NaN
8,291,2,1,2,1,517
8,293,2,0,1,2,759
8,295,2,1,2,0,NaN
8,295,2,0,1,0,NaN
8,295,2,0,1,0,NaN
8,299,2,1,2,0,NaN
8,299,2,1,2,0,NaN
8,299,2,1,2,1,525
8,300,2,0,1,0,NaN
8,300,2,0,1,0,NaN
8,300,2,1,2,1,508
8,301,1,0,2,0,NaN
8,301,1,0,1,1,450
8,302,1,0,1,0,NaN
8,305,1,0,2,3,NaN
8,306,2,0,1,3,NaN
8,306,2,0,1,3,NaN
8,307,1,1,1,1,691
8,307,1,0,2,0,NaN
8,307,1,0,2,0,NaN
8,309,1,0,1,0,NaN
8,309,1,0,1,1,375
8,312,1,0,2,0,NaN
8,312,1,0,1,1,658
8,315,2,0,2,1,584
8,316,1,0,2,3,NaN
8,316,1,0,2,3,NaN
8,316,1,0,2,3,NaN
8,317,2,0,1,3,NaN
8,318,2,0,1,3,NaN
8,319,1,0,1,0,NaN
8,319,1,0,1,0,NaN
8,319,1,0,1,1,458
8,322,1,0,2,0,NaN
8,322,1,0,2,0,NaN
8,322,1,0,2,2,408
8,323,1,0,1,1,625
8,324,1,0,2,0,NaN
8,324,1,0,1,0,NaN
8,324,1,0,1,1,691
8,325,2,1,2,0,NaN
8,325,2,0,2,1,392
8,325,2,0,1,0,NaN
8,326,2,1,2,1,650
8,327,1,0,1,0,NaN
8,327,1,0,1,1,434
8,330,2,1,2,0,NaN
8,330,2,1,2,1,359
8,332,1,0,1,0,NaN
8,332,1,0,1,0,NaN
8,332,1,1,1,1,467
8,333,2,0,1,3,NaN
8,333,2,0,1,3,NaN
8,334,1,0,2,3,NaN
8,334,1,0,2,3,NaN
8,335,2,0,2,0,NaN
8,335,2,0,1,0,NaN
8,335,2,0,1,2,583
8,336,1,0,2,3,NaN
8,336,1,0,2,3,NaN
8,336,1,0,2,3,NaN
8,338,2,0,1,3,NaN
8,338,2,0,1,3,NaN
8,339,2,0,1,3,NaN
8,339,2,0,1,3,NaN
8,340,1,1,1,0,NaN
8,340,1,0,2,0,NaN
8,340,1,0,2,2,551
8,341,1,0,2,0,NaN
8,341,1,0,1,1,349
8,342,1,0,1,0,NaN
8,342,1,0,1,1,459
8,344,1,0,2,0,NaN
8,344,1,0,1,0,NaN
8,344,1,0,1,1,432
8,348,2,0,1,0,NaN
8,348,2,0,2,1,483
8,349,2,1,2,0,NaN
8,349,2,1,2,0,NaN
8,349,2,1,2,1,433
8,350,2,0,1,0,NaN
8,350,2,1,2,1,575
8,351,1,0,2,0,NaN
8,351,1,0,1,1,483
8,351,1,0,2,0,NaN
8,356,1,1,1,1,467
8,356,1,0,2,0,NaN
8,357,1,0,2,3,NaN
8,358,2,1,2,1,500
8,358,2,0,1,0,NaN
8,359,2,1,2,0,NaN
8,359,2,1,2,1,432
8,363,2,0,2,0,NaN
8,363,2,0,2,0,NaN
8,363,2,0,2,1,441
8,365,1,0,1,0,NaN
8,365,1,0,1,1,516
8,366,2,0,1,3,NaN
8,366,2,0,1,3,NaN
8,368,2,1,2,0,NaN
8,368,2,1,2,1,350
8,368,2,0,1,0,NaN
8,369,1,0,2,0,NaN
8,369,1,0,1,1,484
8,370,2,0,2,1,750
8,371,1,0,2,3,NaN
8,372,2,0,1,3,NaN
8,372,2,0,1,3,NaN
8,374,1,0,1,0,NaN
8,374,1,0,1,1,416
8,374,1,0,2,0,NaN
8,378,2,1,2,0,NaN
8,378,2,1,2,1,467
8,378,2,0,1,0,NaN
8,379,1,0,1,0,NaN
8,379,1,0,2,2,508
8,379,1,0,1,0,NaN
8,380,2,1,2,0,NaN
8,380,2,1,2,0,NaN
8,380,2,1,2,1,459
8,381,2,0,1,3,NaN
8,383,2,0,1,3,NaN
8,384,1,0,1,1,492
8,385,2,1,2,0,NaN
8,385,2,1,2,0,NaN
8,385,2,1,2,1,508
8,386,2,0,1,3,NaN
8,387,2,1,2,1,518
8,389,2,0,1,3,NaN
8,393,1,0,1,0,NaN
8,393,1,0,1,1,475
8,394,1,0,1,1,583
8,394,1,0,2,0,NaN
8,396,2,1,2,0,NaN
8,396,2,1,2,1,350
8,397,1,0,1,0,NaN
8,397,1,0,1,0,NaN
8,397,1,0,2,2,400
8,398,1,1,1,1,492
8,398,1,0,2,0,NaN
8,398,1,0,2,0,NaN
8,400,1,0,2,3,NaN
8,401,1,0,2,3,NaN
8,401,1,0,2,3,NaN
8,404,2,0,1,3,NaN
8,404,2,0,1,3,NaN
8,405,2,0,1,3,NaN
8,405,2,0,1,3,NaN
8,406,1,0,2,3,NaN
8,408,1,0,1,0,NaN
8,408,1,0,1,1,425
8,408,1,0,2,0,NaN
8,411,1,0,1,0,NaN
8,411,1,0,1,0,NaN
8,411,1,0,1,1,408
8,412,2,0,2,0,NaN
8,412,2,0,2,1,348
8,413,2,0,2,0,NaN
8,413,2,0,2,0,NaN
8,413,2,0,1,2,500
8,416,1,0,2,0,NaN
8,416,1,0,1,1,433
8,417,1,0,2,3,NaN
8,418,1,0,2,3,NaN
8,419,2,0,2,1,508
8,419,2,0,1,0,NaN
8,421,2,0,1,3,NaN
8,425,2,0,1,3,NaN
8,425,2,0,1,3,NaN
8,427,1,0,2,3,NaN
8,428,1,0,1,1,641
8,429,1,0,2,0,NaN
8,429,1,0,2,0,NaN
8,429,1,0,1,1,450
8,431,1,0,1,1,616
8,431,1,0,2,0,NaN
8,432,2,0,2,0,NaN
8,432,2,0,1,0,NaN
8,432,2,0,2,1,484
8,433,1,0,2,0,NaN
8,435,1,0,2,0,NaN
8,435,1,0,1,1,458
8,437,1,0,2,3,NaN
8,437,1,0,2,3,NaN
8,438,2,0,1,3,NaN
8,438,2,0,1,3,NaN
8,441,1,0,1,0,NaN
8,441,1,0,2,0,NaN
8,441,1,0,1,1,443
8,442,1,0,2,0,NaN
8,442,1,0,1,1,517
8,445,2,0,1,3,NaN
8,445,2,0,1,3,NaN
8,445,2,0,2,0,NaN
8,446,2,0,2,1,600
8,447,2,0,1,3,NaN
8,448,1,0,2,0,NaN
8,448,1,0,1,1,550
8,449,1,0,1,1,717
8,450,2,0,2,0,NaN
8,450,2,0,2,1,574
8,453,1,0,2,0,NaN
8,453,1,0,2,0,NaN
8,453,1,0,1,1,575
8,454,2,0,2,0,NaN
8,454,2,0,2,0,NaN
8,454,2,0,2,1,400
8,455,2,0,2,0,NaN
8,455,2,0,1,2,441
8,457,1,0,1,0,NaN
8,457,1,0,1,1,458
8,458,2,0,2,0,NaN
8,458,2,0,2,1,392
8,459,2,0,2,1,375
8,460,2,0,2,0,NaN
8,460,2,0,2,1,442
8,462,2,0,1,3,NaN
8,464,1,0,1,0,NaN
8,464,1,0,1,1,566
8,468,1,0,2,2,475
8,469,1,0,1,0,NaN
8,469,1,0,1,1,483
8,470,2,0,2,0,NaN
8,470,2,0,2,1,366
8,470,2,0,1,0,NaN
8,471,2,0,2,1,484
8,475,1,0,1,1,800
8,475,1,0,2,0,NaN
8,477,2,0,1,3,NaN
8,478,2,0,1,0,NaN
8,478,2,0,2,1,625
8,478,2,0,1,0,NaN
8,479,1,0,1,0,NaN
8,479,1,0,1,1,475
8,480,1,0,1,1,467
8,480,1,0,2,0,NaN
8,480,1,0,2,0,NaN
8,482,1,0,2,0,NaN
8,482,1,0,1,1,425
8,487,1,0,2,3,NaN
8,490,1,0,1,0,NaN
8,490,1,0,2,0,NaN
8,490,1,0,1,1,408
8,491,2,0,1,3,NaN
8,493,2,0,1,3,NaN
8,494,1,0,1,1,658
8,495,2,0,2,0,NaN
8,495,2,0,1,0,NaN
8,495,2,0,2,1,384
8,496,2,0,2,0,NaN
8,496,2,0,2,1,441
8,496,2,0,1,0,NaN
8,500,1,0,1,1,517
8,500,1,0,2,0,NaN
8,502,2,0,1,0,NaN
8,502,2,0,2,1,575
8,503,1,0,1,1,475
8,503,1,0,2,0,NaN
8,504,1,0,1,0,NaN
8,504,1,0,1,0,NaN
8,504,1,0,1,1,451
8,507,1,0,2,3,NaN
8,507,1,0,2,3,NaN
8,508,2,0,2,0,NaN
8,508,2,0,2,1,366
8,509,2,0,2,1,533
8,510,2,0,2,0,NaN
8,510,2,0,2,0,NaN
8,511,1,0,1,0,NaN
8,511,1,0,1,1,417
8,513,2,0,1,0,NaN
8,513,2,0,2,1,483
8,514,1,0,2,0,NaN
8,514,1,0,1,1,550
8,515,1,0,2,3,NaN
8,516,2,0,1,0,NaN
8,516,2,0,2,1,393
8,516,2,0,1,0,NaN
8,517,2,0,1,0,NaN
8,517,2,0,2,1,484
8,517,2,0,1,0,NaN
8,518,1,0,2,2,534
8,518,1,0,2,0,NaN
8,518,1,0,2,0,NaN
8,519,2,0,1,3,NaN
8,522,1,0,2,3,NaN
8,522,1,0,2,3,NaN
8,522,1,0,2,3,NaN
8,523,2,0,1,3,NaN
8,524,1,0,2,3,NaN
8,524,1,0,2,3,NaN
8,525,2,0,1,0,NaN
8,525,2,0,2,1,458
8,528,2,0,1,0,NaN
8,528,2,0,2,1,518
8,528,2,0,1,0,NaN
8,529,2,0,2,0,NaN
8,529,2,0,2,1,416
8,530,1,0,2,0,NaN
8,530,1,0,2,0,NaN
8,530,1,0,1,1,558
8,532,2,0,1,3,NaN
8,532,2,0,1,3,NaN
8,533,2,0,2,0,NaN
8,533,2,0,2,1,316
8,534,1,0,1,1,558
8,535,1,0,2,3,NaN
8,536,1,0,2,0,NaN
8,536,1,0,1,1,584
8,536,1,0,2,0,NaN
8,537,1,0,2,0,NaN
8,537,1,0,1,0,NaN
8,537,1,0,1,1,409
8,539,1,0,1,0,NaN
8,539,1,0,1,1,391
8,539,1,0,2,0,NaN
8,541,1,0,2,3,NaN
8,542,2,0,1,0,NaN
8,542,2,0,2,1,525
8,544,2,0,2,0,NaN
8,544,2,0,2,1,367
8,545,2,0,1,0,NaN
8,545,2,0,2,1,441
8,545,2,0,1,0,NaN
8,549,2,0,1,0,NaN
8,549,2,0,2,1,483
8,550,2,0,1,3,NaN
8,552,2,0,2,1,400
8,558,1,0,2,3,NaN
8,558,1,0,2,3,NaN
8,562,2,0,2,1,500
8,563,1,0,1,1,475
8,563,1,0,2,0,NaN
8,563,1,0,2,0,NaN
8,564,2,0,2,0,NaN
8,564,2,0,1,0,NaN
8,564,2,0,2,1,508
8,566,1,0,1,0,NaN
8,566,1,0,1,0,NaN
8,568,2,0,1,3,NaN
8,568,2,0,1,3,NaN
8,570,1,0,1,1,500
8,571,2,0,1,3,NaN
8,571,2,0,1,3,NaN
8,571,2,0,1,3,NaN
8,575,2,0,1,3,NaN
8,578,1,0,2,3,NaN
8,579,1,0,1,1,517
8,579,1,0,2,0,NaN
8,580,2,0,2,0,NaN
8,580,2,0,1,0,NaN
8,580,2,0,2,1,425
8,581,1,0,1,1,400
8,582,1,0,1,0,NaN
8,582,1,0,2,0,NaN
8,582,1,0,1,1,350
8,584,1,0,2,0,NaN
8,584,1,0,1,1,450
8,584,1,0,2,0,NaN
8,587,2,0,1,3,NaN
8,587,2,0,1,3,NaN
8,588,1,0,1,0,NaN
8,588,1,0,1,0,NaN
8,588,1,0,1,1,391
8,589,2,0,1,3,NaN
8,589,2,0,1,3,NaN
8,589,2,0,1,3,NaN
8,590,2,0,2,0,NaN
8,590,2,0,2,0,NaN
8,590,2,0,2,1,308
8,591,1,0,1,1,550
8,592,1,0,1,1,459
8,592,1,0,2,0,NaN
8,593,2,0,2,1,408
8,593,2,0,1,0,NaN
8,593,2,0,1,0,NaN
8,594,1,0,2,0,NaN
8,594,1,0,1,1,408
8,596,2,0,2,1,524
8,598,2,0,1,3,NaN
8,600,2,0,1,0,NaN
8,600,2,0,2,1,601
9,1,2,0,1,3,NaN
9,1,2,0,1,3,NaN
9,2,1,0,1,0,NaN
9,2,1,0,1,1,533
9,3,2,0,1,3,NaN
9,3,2,0,2,0,NaN
9,6,2,0,2,1,451
9,8,1,0,2,0,NaN
9,8,1,0,1,1,792
9,8,1,0,2,0,NaN
9,10,1,0,1,0,NaN
9,11,2,0,2,1,817
9,14,1,0,2,0,NaN
9,14,1,0,1,0,NaN
9,15,1,0,2,3,NaN
9,15,1,0,1,0,NaN
9,18,2,0,2,1,483
9,18,2,0,1,0,NaN
9,20,2,0,2,1,516
9,20,2,0,1,0,NaN
9,21,1,0,1,1,658
9,21,1,0,2,0,NaN
9,22,2,0,2,1,541
9,22,2,0,1,0,NaN
9,23,1,0,1,1,566
9,23,1,0,2,0,NaN
9,24,2,0,1,0,NaN
9,24,2,0,1,2,608
9,24,2,0,2,0,NaN
9,26,2,0,2,1,691
9,26,2,0,1,0,NaN
9,27,2,0,1,3,NaN
9,28,1,0,1,0,NaN
9,28,1,0,1,0,NaN
9,30,1,0,2,3,NaN
9,32,1,0,2,3,NaN
9,32,1,0,1,0,NaN
9,33,1,0,1,0,NaN
9,33,1,0,1,0,NaN
9,33,1,0,1,1,634
9,37,2,0,1,3,NaN
9,40,1,0,2,3,NaN
9,40,1,0,2,3,NaN
9,42,2,0,1,0,NaN
9,42,2,0,1,0,NaN
9,42,2,0,2,1,575
9,43,2,0,1,3,NaN
9,45,2,0,2,1,625
9,45,2,0,1,0,NaN
9,47,2,0,2,1,566
9,47,2,0,1,0,NaN
9,48,1,0,2,3,NaN
9,50,2,0,1,0,NaN
9,50,2,0,1,0,NaN
9,50,2,0,2,1,583
9,54,2,0,2,0,NaN
9,54,2,0,2,1,475
9,55,1,0,2,0,NaN
9,55,1,0,1,1,651
9,56,1,0,2,3,NaN
9,57,1,0,2,3,NaN
9,57,1,0,2,3,NaN
9,57,1,0,1,0,NaN
9,58,2,0,1,0,NaN
9,58,2,0,1,0,NaN
9,58,2,0,2,1,533
9,59,1,0,1,0,NaN
9,59,1,0,1,1,558
9,63,1,0,1,1,625
9,65,1,0,2,3,NaN
9,65,1,0,2,3,NaN
9,66,2,0,1,3,NaN
9,66,2,0,1,3,NaN
9,67,1,0,2,3,NaN
9,67,1,0,2,3,NaN
9,68,2,0,1,3,NaN
9,68,2,0,1,3,NaN
9,69,2,0,1,0,NaN
9,69,2,0,2,0,NaN
9,69,2,0,2,1,724
9,70,2,0,1,0,NaN
9,70,2,0,2,1,517
9,71,1,0,1,0,NaN
9,71,1,0,1,0,NaN
9,71,1,0,1,1,467
9,73,1,0,2,3,NaN
9,74,2,0,1,3,NaN
9,75,1,0,1,1,693
9,75,1,0,2,0,NaN
9,78,2,0,1,3,NaN
9,78,2,0,1,3,NaN
9,79,1,0,1,0,NaN
9,79,1,0,2,3,NaN
9,80,1,0,1,1,568
9,81,2,0,1,3,NaN
9,81,2,0,1,3,NaN
9,81,2,0,1,3,NaN
9,82,1,0,2,0,NaN
9,82,1,0,2,0,NaN
9,82,1,0,1,1,625
9,83,2,0,1,0,NaN
9,83,2,0,2,1,583
9,84,1,0,1,0,NaN
9,84,1,0,1,1,576
9,88,1,0,1,1,426
9,89,2,0,1,3,NaN
9,90,1,0,2,3,NaN
9,90,1,0,2,3,NaN
9,95,1,0,1,1,849
9,97,2,0,2,0,NaN
9,97,2,0,1,3,NaN
9,97,2,0,1,3,NaN
9,98,2,0,2,1,525
9,100,1,0,1,0,NaN
9,100,1,0,1,1,484
9,101,2,0,1,0,NaN
9,101,2,0,2,1,459
9,101,2,0,1,0,NaN
9,104,1,0,1,0,NaN
9,106,2,0,1,3,NaN
9,107,2,0,2,1,484
9,107,2,0,2,0,NaN
9,108,1,0,2,0,NaN
9,108,1,0,2,0,NaN
9,108,1,0,1,1,592
9,110,1,0,2,3,NaN
9,110,1,0,1,0,NaN
9,111,2,0,1,0,NaN
9,111,2,0,2,1,651
9,113,2,0,2,1,466
9,113,2,0,1,0,NaN
9,113,2,0,1,0,NaN
9,115,2,0,1,0,NaN
9,115,2,0,2,1,500
9,117,1,0,1,1,609
9,118,1,0,2,0,NaN
9,118,1,0,1,0,NaN
9,118,1,0,1,1,550
9,119,2,0,2,1,674
9,121,1,0,2,3,NaN
9,123,2,0,1,0,NaN
9,123,2,0,1,0,NaN
9,123,2,0,2,1,500
9,124,2,0,1,0,NaN
9,124,2,0,2,0,NaN
9,124,2,0,2,1,484
9,125,2,0,2,0,NaN
9,125,2,0,2,0,NaN
9,125,2,0,2,1,508
9,128,2,0,2,0,NaN
9,128,2,0,2,1,683
9,129,1,0,1,0,NaN
9,129,1,0,2,3,NaN
9,130,1,0,2,3,NaN
9,132,1,0,2,0,NaN
9,132,1,0,2,0,NaN
9,132,1,0,1,1,667
9,133,2,0,2,0,NaN
9,134,1,0,2,3,NaN
9,136,2,0,2,1,775
9,136,2,0,1,0,NaN
9,136,2,0,1,0,NaN
9,137,1,0,2,3,NaN
9,137,1,0,2,3,NaN
9,137,1,0,1,0,NaN
9,138,2,0,2,1,775
9,139,2,0,2,1,466
9,140,2,0,2,1,509
9,141,1,0,1,0,NaN
9,141,1,0,1,1,591
9,143,1,0,2,0,NaN
9,143,1,0,1,0,NaN
9,143,1,0,1,1,541
9,147,2,0,1,3,NaN
9,148,2,0,2,0,NaN
9,148,2,0,2,1,625
9,151,1,0,2,3,NaN
9,151,1,0,2,3,NaN
9,151,1,0,1,0,NaN
9,152,2,0,2,0,NaN
9,152,2,0,2,0,NaN
9,152,2,0,2,1,575
9,155,2,0,2,1,542
9,155,2,0,1,0,NaN
9,159,2,0,1,0,NaN
9,159,2,0,2,1,525
9,160,1,0,2,0,NaN
9,160,1,0,1,1,608
9,161,1,0,2,3,NaN
9,161,1,0,1,0,NaN
9,161,1,0,2,3,NaN
9,163,1,0,1,1,759
9,163,1,0,2,0,NaN
9,165,2,0,2,1,491
9,165,2,0,1,0,NaN
9,166,1,0,2,3,NaN
9,168,2,0,1,3,NaN
9,169,1,0,2,0,NaN
9,169,1,0,1,0,NaN
9,169,1,0,2,0,NaN
9,170,2,0,1,0,NaN
9,170,2,0,1,0,NaN
9,170,2,0,2,1,625
9,171,2,0,2,0,NaN
9,171,2,0,2,0,NaN
9,171,2,0,2,1,500
9,173,1,0,1,1,525
9,173,1,0,2,0,NaN
9,175,1,0,2,3,NaN
9,175,1,0,2,3,NaN
9,179,1,0,2,0,NaN
9,179,1,0,1,1,725
9,179,1,0,2,0,NaN
9,181,2,0,2,1,633
9,181,2,0,1,0,NaN
9,182,1,0,1,0,NaN
9,182,1,0,1,1,484
9,183,2,0,2,1,517
9,184,1,0,1,1,592
9,184,1,0,2,0,NaN
9,184,1,0,2,0,NaN
9,186,2,0,2,0,NaN
9,186,2,0,2,1,601
9,187,2,0,1,3,NaN
9,187,2,0,1,3,NaN
9,187,2,0,2,0,NaN
9,190,1,0,2,2,791
9,191,2,0,1,3,NaN
9,192,2,0,1,0,NaN
9,192,2,0,2,1,667
9,192,2,0,2,0,NaN
9,196,1,0,2,0,NaN
9,196,1,0,2,0,NaN
9,196,1,0,1,1,608
9,197,1,0,1,0,NaN
9,197,1,0,1,0,NaN
9,197,1,0,1,1,567
9,199,1,0,2,3,NaN
9,199,1,0,1,0,NaN
9,200,1,0,2,3,NaN
9,202,2,0,1,3,NaN
9,202,2,0,1,3,NaN
9,203,1,1,1,0,NaN
9,203,1,1,1,1,508
9,204,2,0,2,0,NaN
9,204,2,0,2,0,NaN
9,205,2,0,2,0,NaN
9,205,2,0,1,0,NaN
9,205,2,0,2,1,607
9,206,1,0,2,3,NaN
9,206,1,1,1,0,NaN
9,207,2,0,2,1,526
9,207,2,0,1,0,NaN
9,207,2,0,1,0,NaN
9,209,1,0,2,0,NaN
9,209,1,1,1,1,516
9,212,2,0,1,3,NaN
9,213,2,1,2,1,617
9,213,2,0,1,0,NaN
9,214,1,0,2,3,NaN
9,215,2,1,2,1,575
9,216,1,0,2,3,NaN
9,216,1,0,2,3,NaN
9,217,2,1,2,1,591
9,219,2,0,2,0,NaN
9,219,2,0,1,3,NaN
9,219,2,0,1,3,NaN
9,221,2,0,1,3,NaN
9,221,2,0,1,3,NaN
9,222,1,0,2,0,NaN
9,222,1,1,1,1,541
9,223,1,0,2,3,NaN
9,223,1,0,2,3,NaN
9,224,2,0,1,0,NaN
9,224,2,0,2,1,609
9,225,1,0,1,0,NaN
9,225,1,0,2,3,NaN
9,225,1,1,1,0,NaN
9,227,1,1,1,1,592
9,228,2,0,1,3,NaN
9,229,1,0,1,0,NaN
9,229,1,1,1,1,650
9,230,1,0,2,3,NaN
9,232,1,0,1,1,550
9,232,1,0,2,0,NaN
9,234,2,1,2,0,NaN
9,234,2,0,2,1,559
9,235,1,0,2,3,NaN
9,236,2,0,1,3,NaN
9,236,2,0,1,3,NaN
9,237,1,0,2,3,NaN
9,243,2,0,1,0,NaN
9,243,2,0,2,0,NaN
9,243,2,1,2,1,516
9,244,1,1,1,1,533
9,244,1,0,2,0,NaN
9,245,2,0,2,1,517
9,246,2,0,1,3,NaN
9,247,2,0,2,0,NaN
9,247,2,1,2,1,408
9,248,1,0,2,0,NaN
9,248,1,1,1,0,NaN
9,248,1,1,1,1,517
9,249,1,0,2,3,NaN
9,250,2,0,2,1,599
9,252,2,0,1,3,NaN
9,256,2,0,2,0,NaN
9,256,2,0,2,1,516
9,257,2,0,2,1,724
9,259,2,1,2,0,NaN
9,259,2,1,2,0,NaN
9,259,2,0,2,1,750
9,261,1,0,2,3,NaN
9,261,1,0,2,3,NaN
9,263,2,0,1,0,NaN
9,263,2,0,2,1,508
9,264,2,0,2,1,683
9,264,2,0,1,0,NaN
9,266,2,0,1,0,NaN
9,266,2,0,1,0,NaN
9,266,2,0,2,1,533
9,267,1,1,1,1,575
9,268,1,0,1,1,533
9,270,1,0,1,0,NaN
9,271,1,1,1,0,NaN
9,271,1,1,1,1,550
9,271,1,1,1,0,NaN
9,272,1,0,2,3,NaN
9,274,2,0,1,3,NaN
9,274,2,0,1,3,NaN
9,279,2,0,1,3,NaN
9,279,2,0,2,0,NaN
9,280,1,0,2,3,NaN
9,280,1,1,1,0,NaN
9,280,1,0,2,3,NaN
9,281,1,0,2,0,NaN
9,281,1,1,1,1,601
9,281,1,0,2,0,NaN
9,282,2,0,1,0,NaN
9,282,2,0,2,1,558
9,283,2,0,1,3,NaN
9,283,2,0,1,3,NaN
9,284,2,0,2,1,493
9,286,1,1,1,1,567
9,287,2,0,1,0,NaN
9,287,2,0,1,0,NaN
9,287,2,0,2,1,625
9,288,1,0,1,0,NaN
9,288,1,1,1,0,NaN
9,290,2,0,1,3,NaN
9,292,1,0,2,0,NaN
9,292,1,0,2,0,NaN
9,292,1,1,1,1,650
9,293,2,0,2,0,NaN
9,293,2,0,2,1,475
9,295,2,1,2,1,559
9,296,1,0,2,3,NaN
9,296,1,0,2,3,NaN
9,297,2,0,2,1,559
9,297,2,0,1,0,NaN
9,303,1,1,1,1,559
9,303,1,0,2,0,NaN
9,307,1,0,2,3,NaN
9,308,1,0,2,3,NaN
9,308,1,0,2,3,NaN
9,308,1,0,2,3,NaN
9,311,1,1,1,0,NaN
9,311,1,0,1,1,525
9,312,1,0,2,2,617
9,312,1,0,2,0,NaN
9,313,2,0,2,1,566
9,313,2,0,1,0,NaN
9,313,2,0,1,0,NaN
9,314,1,0,2,0,NaN
9,314,1,0,2,0,NaN
9,314,1,1,1,1,742
9,317,2,0,1,0,NaN
9,317,2,1,2,1,493
9,318,1,0,1,1,483
9,318,1,0,2,0,NaN
9,321,2,0,2,1,509
9,322,1,1,1,1,491
9,322,1,0,2,0,NaN
9,323,2,0,2,1,651
9,323,2,0,1,0,NaN
9,323,2,0,1,0,NaN
9,324,2,0,2,1,476
9,324,2,0,1,0,NaN
9,325,1,1,1,1,533
9,325,1,0,2,0,NaN
9,325,1,0,2,0,NaN
9,327,1,1,1,0,NaN
9,327,1,0,1,1,592
9,328,2,0,2,1,551
9,328,2,0,1,0,NaN
9,329,1,0,1,1,525
9,329,1,0,2,0,NaN
9,331,2,0,2,0,NaN
9,331,2,0,2,0,NaN
9,334,1,1,1,0,NaN
9,334,1,0,2,0,NaN
9,334,1,1,1,1,550
9,335,1,1,1,1,599
9,337,2,0,1,0,NaN
9,337,2,0,2,0,NaN
9,337,2,1,2,1,533
9,339,1,0,2,3,NaN
9,339,1,1,1,0,NaN
9,343,2,0,1,3,NaN
9,343,2,0,1,3,NaN
9,346,1,1,1,0,NaN
9,346,1,0,2,0,NaN
9,349,2,0,1,3,NaN
9,349,2,0,1,3,NaN
9,350,1,0,2,0,NaN
9,350,1,1,1,1,625
9,351,2,0,1,3,NaN
9,352,2,0,2,1,509
9,352,2,0,1,0,NaN
9,354,1,1,1,1,633
9,354,1,0,2,0,NaN
9,355,1,0,2,3,NaN
9,355,1,0,2,3,NaN
9,357,2,0,2,1,484
9,358,2,0,2,0,NaN
9,358,2,0,2,1,500
9,358,2,0,2,0,NaN
9,360,1,0,2,3,NaN
9,360,1,0,2,3,NaN
9,362,1,1,1,1,549
9,363,1,1,1,1,517
9,365,1,0,2,3,NaN
9,365,1,1,1,0,NaN
9,366,2,0,1,3,NaN
9,366,2,0,1,3,NaN
9,368,2,0,1,3,NaN
9,370,2,0,1,0,NaN
9,370,2,0,2,1,433
9,370,2,0,1,0,NaN
9,372,2,0,2,1,518
9,372,2,0,1,0,NaN
9,374,2,0,1,0,NaN
9,374,2,0,2,1,566
9,375,1,1,1,0,NaN
9,375,1,1,1,1,459
9,377,1,0,2,0,NaN
9,377,1,1,1,1,799
9,378,1,1,1,0,NaN
9,378,1,1,1,1,517
9,380,1,0,2,3,NaN
9,380,1,0,2,3,NaN
9,381,2,0,2,0,NaN
9,381,2,0,2,1,551
9,381,2,0,1,0,NaN
9,383,1,1,1,0,NaN
9,383,1,0,1,1,533
9,383,1,1,1,0,NaN
9,384,1,0,2,0,NaN
9,384,1,0,2,0,NaN
9,384,1,1,1,1,583
9,385,1,0,2,0,NaN
9,385,1,1,1,1,584
9,385,1,0,2,0,NaN
9,388,1,0,2,0,NaN
9,388,1,0,2,0,NaN
9,388,1,1,1,1,733
9,390,2,0,1,0,NaN
9,390,2,0,2,1,533
9,394,2,0,1,3,NaN
9,394,2,0,1,3,NaN
9,394,2,0,1,3,NaN
9,395,1,0,1,0,NaN
9,395,1,1,1,0,NaN
9,395,1,1,1,0,NaN
9,399,2,0,2,0,NaN
9,399,2,1,2,0,NaN
9,399,2,0,2,1,466
9,400,2,0,1,0,NaN
9,400,2,0,1,0,NaN
9,400,2,0,2,1,584
9,401,1,0,1,0,NaN
9,401,1,0,1,0,NaN
9,401,1,0,1,1,600
9,402,2,0,2,0,NaN
9,402,2,0,1,0,NaN
9,402,2,0,2,1,476
9,405,2,0,1,3,NaN
9,405,2,0,1,3,NaN
9,406,2,0,2,1,592
9,407,1,0,2,3,NaN
9,407,1,0,2,3,NaN
9,409,1,0,1,1,774
9,409,1,0,2,0,NaN
9,410,2,0,1,0,NaN
9,410,2,0,2,0,NaN
9,410,2,0,2,1,500
9,412,1,0,2,2,616
9,412,1,0,1,0,NaN
9,413,2,0,1,3,NaN
9,414,1,0,1,1,533
9,416,2,0,2,1,750
9,417,1,0,1,0,NaN
9,417,1,0,1,1,609
9,419,2,0,1,3,NaN
9,419,2,0,1,3,NaN
9,420,1,0,1,0,NaN
9,421,1,0,1,0,NaN
9,421,1,0,1,0,NaN
9,421,1,0,1,1,542
9,422,2,0,2,0,NaN
9,422,2,0,2,1,459
9,423,2,0,1,3,NaN
9,423,2,0,1,3,NaN
9,424,1,0,2,0,NaN
9,424,1,0,1,1,592
9,424,1,0,2,0,NaN
9,425,1,0,1,0,NaN
9,425,1,0,1,0,NaN
9,426,1,0,2,0,NaN
9,426,1,0,1,0,NaN
9,426,1,0,1,1,525
9,427,1,0,2,3,NaN
9,427,1,0,2,3,NaN
9,428,1,0,2,3,NaN
9,429,1,0,2,3,NaN
9,432,1,0,2,3,NaN
9,432,1,0,1,0,NaN
9,435,1,0,2,0,NaN
9,435,1,0,1,1,591
9,436,2,0,2,0,NaN
9,436,2,0,2,1,675
9,436,2,0,1,0,NaN
9,437,2,0,2,0,NaN
9,437,2,0,2,0,NaN
9,437,2,0,2,1,450
9,439,1,0,2,0,NaN
9,439,1,0,1,1,566
9,439,1,0,2,0,NaN
9,440,1,0,2,3,NaN
9,441,2,0,1,3,NaN
9,442,1,0,1,0,NaN
9,442,1,0,1,1,492
9,443,2,0,2,1,542
9,443,2,0,1,0,NaN
9,445,1,0,2,3,NaN
9,445,1,0,2,3,NaN
9,447,2,0,1,3,NaN
9,447,2,0,1,3,NaN
9,447,2,0,1,3,NaN
9,449,1,0,1,0,NaN
9,449,1,0,1,1,542
9,450,2,0,2,0,NaN
9,450,2,0,1,0,NaN
9,450,2,0,2,1,567
9,452,2,0,2,0,NaN
9,452,2,0,1,0,NaN
9,452,2,0,2,1,575
9,454,1,0,2,0,NaN
9,454,1,0,1,1,643
9,455,1,0,2,0,NaN
9,455,1,0,1,1,634
9,456,1,0,1,1,633
9,456,1,0,2,0,NaN
9,457,2,0,1,0,NaN
9,457,2,0,1,2,518
9,458,1,0,2,0,NaN
9,458,1,0,1,1,625
9,459,1,0,1,1,483
9,462,1,0,2,0,NaN
9,462,1,0,1,1,659
9,464,1,0,2,0,NaN
9,464,1,0,1,1,676
9,467,1,0,2,3,NaN
9,467,1,0,1,0,NaN
9,468,2,0,1,3,NaN
9,468,2,0,2,0,NaN
9,469,2,0,1,3,NaN
9,470,2,0,2,0,NaN
9,470,2,0,2,1,434
9,471,2,0,2,1,675
9,473,2,0,2,1,467
9,475,1,0,2,2,658
9,475,1,0,2,0,NaN
9,476,2,0,1,3,NaN
9,476,2,0,1,3,NaN
9,479,1,0,1,0,NaN
9,479,1,0,2,3,NaN
9,480,1,0,2,3,NaN
9,480,1,0,2,3,NaN
9,482,1,0,1,0,NaN
9,482,1,0,1,1,833
9,482,1,0,2,0,NaN
9,483,2,0,2,0,NaN
9,483,2,0,2,1,491
9,484,1,0,2,0,NaN
9,484,1,0,2,0,NaN
9,484,1,0,1,1,491
9,485,1,0,1,0,NaN
9,485,1,0,2,0,NaN
9,485,1,0,1,1,567
9,486,1,0,1,1,434
9,487,1,0,1,0,NaN
9,487,1,0,1,0,NaN
9,487,1,0,1,1,625
9,488,1,0,2,0,NaN
9,488,1,0,2,0,NaN
9,488,1,0,1,1,508
9,489,2,0,2,1,551
9,490,2,0,2,1,708
9,492,2,0,1,0,NaN
9,492,2,0,1,0,NaN
9,492,2,0,2,1,484
9,494,1,0,1,1,617
9,496,1,0,2,0,NaN
9,496,1,0,1,0,NaN
9,496,1,0,1,1,441
9,497,2,0,1,3,NaN
9,498,2,0,1,3,NaN
9,498,2,0,1,3,NaN
9,499,1,0,2,3,NaN
9,500,2,0,2,0,NaN
9,500,2,0,2,1,542
9,500,2,0,1,0,NaN
9,504,2,0,1,3,NaN
9,508,2,0,2,0,NaN
9,508,2,0,1,0,NaN
9,508,2,0,2,1,558
9,510,2,0,2,1,558
9,510,2,0,1,0,NaN
9,511,2,0,2,1,508
9,511,2,0,1,0,NaN
9,511,2,0,1,0,NaN
9,512,1,0,2,3,NaN
9,512,1,0,2,3,NaN
9,512,1,0,2,3,NaN
9,515,1,0,1,1,708
9,515,1,0,2,0,NaN
9,516,2,0,1,3,NaN
9,517,2,0,1,0,NaN
9,517,2,0,2,1,650
9,517,2,0,1,0,NaN
9,521,1,0,2,3,NaN
9,521,1,0,1,0,NaN
9,522,1,0,2,3,NaN
9,523,1,0,2,0,NaN
9,523,1,0,1,1,700
9,532,2,0,1,0,NaN
9,532,2,0,1,0,NaN
9,532,2,0,2,1,666
9,534,2,0,2,0,NaN
9,534,2,0,2,1,524
9,537,2,0,2,1,717
9,538,2,0,2,0,NaN
9,538,2,0,2,0,NaN
9,538,2,0,2,1,500
9,539,1,0,2,3,NaN
9,540,1,0,2,3,NaN
9,540,1,0,2,3,NaN
9,543,1,0,1,0,NaN
9,544,1,0,2,0,NaN
9,544,1,0,1,1,625
9,544,1,0,2,0,NaN
9,547,1,0,1,0,NaN
9,548,2,0,2,0,NaN
9,548,2,0,2,1,684
9,549,2,0,1,3,NaN
9,549,2,0,1,3,NaN
9,549,2,0,1,3,NaN
9,552,1,0,1,0,NaN
9,552,1,0,2,0,NaN
9,552,1,0,1,1,641
9,554,2,0,1,3,NaN
9,555,1,0,2,3,NaN
9,555,1,0,2,3,NaN
9,557,2,0,2,1,525
9,557,2,0,1,0,NaN
9,559,2,0,2,1,757
9,559,2,0,1,0,NaN
9,560,1,0,2,0,NaN
9,560,1,0,1,0,NaN
9,560,1,0,1,1,483
9,566,2,0,1,0,NaN
9,566,2,0,2,1,600
9,566,2,0,1,0,NaN
9,569,2,0,2,0,NaN
9,569,2,0,2,1,492
9,569,2,0,2,0,NaN
9,572,1,0,2,2,524
9,572,1,0,2,0,NaN
9,573,2,0,2,0,NaN
9,573,2,0,1,0,NaN
9,573,2,0,2,1,550
9,575,2,0,2,0,NaN
9,575,2,0,2,1,500
9,576,1,0,1,1,625
9,579,2,0,2,1,616
9,582,2,0,1,3,NaN
9,582,2,0,1,3,NaN
9,584,1,0,2,2,567
9,584,1,0,2,0,NaN
9,585,2,0,1,0,NaN
9,585,2,0,2,1,609
9,586,1,0,1,1,684
9,588,2,0,1,3,NaN
9,589,2,0,1,3,NaN
9,590,2,0,1,3,NaN
9,590,2,0,1,3,NaN
9,591,2,0,1,3,NaN
9,591,2,0,2,0,NaN
9,592,2,0,1,0,NaN
9,592,2,0,2,1,550
9,594,2,0,2,1,558
9,595,2,0,1,3,NaN
9,595,2,0,1,3,NaN
9,596,1,0,1,1,675
9,596,1,0,2,0,NaN
9,598,1,0,1,1,618
9,598,1,0,2,0,NaN
9,599,2,0,2,1,767
9,599,2,0,1,0,NaN
11,3,1,0,2,2,484
11,4,2,0,2,1,558
11,4,2,0,1,0,NaN
11,5,1,0,2,3,NaN
11,8,2,0,1,3,NaN
11,8,2,0,1,3,NaN
11,9,1,0,1,0,NaN
11,9,1,0,1,1,609
11,10,2,0,1,0,NaN
11,10,2,0,2,1,575
11,12,2,0,2,1,667
11,17,2,0,2,1,524
11,17,2,0,1,0,NaN
11,17,2,0,1,0,NaN
11,19,1,0,1,1,641
11,20,2,0,2,0,NaN
11,20,2,0,2,0,NaN
11,20,2,0,2,1,383
11,23,2,0,1,0,NaN
11,23,2,0,1,2,684
11,26,1,0,1,0,NaN
11,26,1,0,1,1,524
11,27,2,0,2,1,533
11,28,2,0,1,3,NaN
11,29,2,0,2,1,558
11,29,2,0,1,0,NaN
11,29,2,0,1,0,NaN
11,30,2,0,2,1,708
11,30,2,0,1,0,NaN
11,31,1,0,1,1,466
11,35,1,0,2,0,NaN
11,35,1,0,1,0,NaN
11,35,1,0,1,1,492
11,36,2,0,1,3,NaN
11,38,1,0,2,2,466
11,40,1,0,2,2,825
11,42,2,0,2,1,591
11,46,1,0,2,0,NaN
11,46,1,0,2,2,482
11,48,2,0,1,3,NaN
11,49,2,0,2,1,417
11,54,2,0,1,3,NaN
11,54,2,0,1,3,NaN
11,55,1,0,1,0,NaN
11,55,1,0,1,1,483
11,56,1,0,2,0,NaN
11,56,1,0,2,0,NaN
11,56,1,0,2,2,391
11,58,1,0,2,3,NaN
11,60,1,0,2,2,483
11,61,1,0,2,3,NaN
11,61,1,0,1,0,NaN
11,62,1,0,2,0,NaN
11,62,1,0,1,1,650
11,62,1,0,1,0,NaN
11,66,2,0,1,0,NaN
11,66,2,0,1,0,NaN
11,66,2,0,2,1,533
11,67,2,0,1,0,NaN
11,67,2,0,2,1,392
11,69,2,0,1,0,NaN
11,69,2,0,2,1,475
11,71,2,0,1,0,NaN
11,71,2,0,2,1,475
11,73,1,0,2,0,NaN
11,73,1,0,2,2,559
11,76,2,0,1,3,NaN
11,76,2,0,2,0,NaN
11,77,2,0,1,3,NaN
11,79,2,0,2,1,459
11,80,1,0,1,0,NaN
11,82,1,0,1,0,NaN
11,83,1,0,1,0,NaN
11,83,1,0,2,2,492
11,85,1,0,1,0,NaN
11,85,1,0,1,1,625
11,86,2,0,1,0,NaN
11,86,2,0,2,1,476
11,88,1,0,1,0,NaN
11,88,1,0,2,2,459
11,90,1,0,1,0,NaN
11,92,1,0,2,2,583
11,93,2,0,1,0,NaN
11,93,2,0,2,1,583
11,95,1,0,2,2,666
11,95,1,0,2,0,NaN
11,95,1,0,2,0,NaN
11,96,2,0,1,0,NaN
11,96,2,0,1,2,500
11,98,1,0,2,2,525
11,98,1,0,2,0,NaN
11,99,1,0,2,0,NaN
11,99,1,0,1,1,442
11,100,1,0,2,0,NaN
11,100,1,0,2,0,NaN
11,100,1,0,1,1,484
11,103,1,0,2,2,475
11,104,1,0,2,0,NaN
11,104,1,0,1,0,NaN
11,104,1,0,2,2,842
11,105,1,0,1,1,533
11,107,1,0,1,0,NaN
11,107,1,0,2,2,767
11,108,2,0,2,0,NaN
11,108,2,0,1,0,NaN
11,108,2,0,1,2,559
11,109,2,0,1,0,NaN
11,109,2,0,2,1,600
11,110,2,0,1,0,NaN
11,110,2,0,2,0,NaN
11,110,2,0,1,2,849
11,115,1,0,2,0,NaN
11,115,1,0,1,1,667
11,116,2,0,1,0,NaN
11,116,2,0,2,0,NaN
11,116,2,0,2,1,434
11,117,2,0,1,3,NaN
11,117,2,0,1,3,NaN
11,118,1,0,2,2,566
11,118,1,0,2,0,NaN
11,119,2,0,2,1,550
11,122,1,0,1,0,NaN
11,122,1,0,1,0,NaN
11,122,1,0,1,1,408
11,123,1,0,1,0,NaN
11,123,1,0,2,2,533
11,124,2,0,1,2,442
11,125,2,0,1,0,NaN
11,125,2,0,1,0,NaN
11,125,2,0,2,1,533
11,126,2,0,1,0,NaN
11,126,2,0,2,1,584
11,130,1,0,1,0,NaN
11,130,1,0,1,1,442
11,131,2,0,2,1,567
11,132,1,0,1,0,NaN
11,132,1,0,1,1,533
11,135,1,0,2,0,NaN
11,135,1,0,1,1,425
11,136,2,0,1,3,NaN
11,137,1,0,2,0,NaN
11,137,1,0,1,1,566
11,140,2,0,2,0,NaN
11,140,2,0,2,1,509
11,141,1,0,1,0,NaN
11,141,1,0,1,1,416
11,142,2,0,1,0,NaN
11,142,2,0,2,1,509
11,144,2,0,2,0,NaN
11,144,2,0,2,1,425
11,145,2,0,2,1,483
11,146,2,0,2,0,NaN
11,146,2,0,2,0,NaN
11,146,2,0,2,1,351
11,147,1,0,2,3,NaN
11,148,1,0,1,1,433
11,152,1,0,1,0,NaN
11,152,1,0,1,1,508
11,153,1,0,1,0,NaN
11,153,1,0,1,0,NaN
11,153,1,0,2,2,458
11,154,1,0,1,1,425
11,154,1,0,2,0,NaN
11,154,1,0,2,0,NaN
11,155,1,0,2,2,491
11,156,2,0,1,0,NaN
11,156,2,0,2,1,475
11,159,2,0,2,0,NaN
11,159,2,0,2,1,400
11,161,2,0,1,3,NaN
11,161,2,0,2,0,NaN
11,162,1,0,2,3,NaN
11,164,1,0,1,0,NaN
11,164,1,0,2,0,NaN
11,164,1,0,1,1,383
11,165,2,0,1,0,NaN
11,165,2,0,2,1,516
11,166,1,0,2,0,NaN
11,166,1,0,2,2,617
11,168,1,0,1,0,NaN
11,168,1,0,2,0,NaN
11,168,1,0,2,2,425
11,170,1,0,1,0,NaN
11,170,1,0,1,1,467
11,170,1,0,2,0,NaN
11,171,2,0,1,2,500
11,172,2,0,2,0,NaN
11,172,2,0,2,0,NaN
11,172,2,0,2,1,467
11,173,2,0,1,0,NaN
11,173,2,0,1,0,NaN
11,173,2,0,2,1,591
11,174,2,0,1,0,NaN
11,174,2,0,2,1,474
11,174,2,0,1,0,NaN
11,175,1,0,2,0,NaN
11,175,1,0,2,2,475
11,175,1,0,2,0,NaN
11,178,1,0,2,3,NaN
11,178,1,0,2,3,NaN
11,179,2,0,1,0,NaN
11,179,2,0,1,0,NaN
11,179,2,0,1,2,634
11,180,2,0,2,1,492
11,181,1,0,1,0,NaN
11,181,1,0,1,0,NaN
11,181,1,0,1,1,367
11,182,1,0,1,0,NaN
11,182,1,0,2,0,NaN
11,182,1,0,1,1,417
11,184,2,0,2,0,NaN
11,184,2,0,2,1,433
11,186,1,0,1,0,NaN
11,186,1,0,1,1,367
11,187,2,0,2,0,NaN
11,187,2,0,2,1,507
11,187,2,0,1,0,NaN
11,188,2,0,1,0,NaN
11,188,2,0,2,0,NaN
11,188,2,0,2,1,533
11,189,1,0,1,0,NaN
11,189,1,0,1,1,350
11,189,1,0,2,0,NaN
11,190,2,0,1,3,NaN
11,191,2,0,2,1,450
11,191,2,0,1,0,NaN
11,193,1,0,2,0,NaN
11,193,1,0,2,0,NaN
11,193,1,0,2,0,NaN
11,194,2,0,1,0,NaN
11,194,2,0,2,0,NaN
11,194,2,0,2,1,633
11,195,1,0,1,0,NaN
11,195,1,0,2,0,NaN
11,195,1,0,1,1,475
11,198,2,0,1,0,NaN
11,198,2,0,2,0,NaN
11,198,2,0,1,2,567
11,200,2,0,2,1,459
11,200,2,0,1,0,NaN
11,202,2,0,2,1,566
11,202,2,0,1,0,NaN
11,204,2,1,2,0,NaN
11,204,2,0,2,1,566
11,205,1,0,2,0,NaN
11,205,1,0,1,0,NaN
11,205,1,1,1,1,441
11,206,2,0,2,1,701
11,206,2,0,1,0,NaN
11,207,2,0,1,0,NaN
11,207,2,0,2,0,NaN
11,207,2,0,2,1,443
11,208,2,0,2,0,NaN
11,208,2,1,2,1,550
11,208,2,0,1,0,NaN
11,209,2,0,1,3,NaN
11,210,2,0,2,1,726
11,210,2,0,1,0,NaN
11,212,1,0,2,2,500
11,213,1,1,1,1,600
11,214,2,0,2,1,550
11,214,2,0,1,0,NaN
11,214,2,0,1,0,NaN
11,215,1,1,1,1,533
11,215,1,0,2,0,NaN
11,218,1,0,1,1,533
11,218,1,0,2,0,NaN
11,219,1,0,2,0,NaN
11,219,1,1,1,0,NaN
11,219,1,1,1,1,491
11,220,2,0,2,1,459
11,223,1,0,1,1,492
11,229,1,1,1,0,NaN
11,229,1,0,1,1,558
11,230,2,0,2,0,NaN
11,230,2,0,1,2,625
11,231,1,1,1,1,608
11,232,1,0,2,2,592
11,234,1,1,1,0,NaN
11,234,1,0,1,1,491
11,235,1,0,2,0,NaN
11,235,1,0,1,0,NaN
11,235,1,1,1,1,634
11,237,2,0,2,1,474
11,238,2,1,2,0,NaN
11,238,2,0,1,0,NaN
11,238,2,0,1,2,558
11,239,1,0,2,2,392
11,240,2,0,2,0,NaN
11,241,1,0,2,2,750
11,242,1,0,2,2,525
11,242,1,0,2,0,NaN
11,244,1,1,1,1,500
11,245,1,0,2,0,NaN
11,245,1,0,2,2,517
11,245,1,0,2,0,NaN
11,248,1,1,1,0,NaN
11,248,1,0,2,2,500
11,250,2,0,1,3,NaN
11,250,2,0,1,3,NaN
11,251,2,0,2,1,500
11,254,1,1,1,0,NaN
11,254,1,1,1,0,NaN
11,254,1,1,1,1,451
11,255,2,0,1,2,476
11,256,1,0,2,0,NaN
11,256,1,1,1,1,491
11,256,1,0,2,0,NaN
11,258,1,0,2,0,NaN
11,258,1,0,2,0,NaN
11,258,1,1,1,1,559
11,260,1,0,2,0,NaN
11,260,1,0,2,2,358
11,260,1,0,2,0,NaN
11,261,2,0,1,0,NaN
11,261,2,0,2,1,616
11,264,1,1,1,0,NaN
11,264,1,0,2,0,NaN
11,264,1,0,2,2,767
11,266,1,1,1,1,541
11,271,2,1,2,1,525
11,271,2,0,1,0,NaN
11,272,2,0,1,3,NaN
11,273,1,0,2,2,567
11,273,1,1,1,0,NaN
11,274,2,0,1,0,NaN
11,274,2,0,2,1,642
11,276,1,0,2,3,NaN
11,279,1,1,1,1,634
11,279,1,0,2,0,NaN
11,280,2,0,2,1,566
11,280,2,0,1,0,NaN
11,280,2,0,1,0,NaN
11,283,2,0,1,0,NaN
11,283,2,0,2,1,434
11,287,1,0,2,3,NaN
11,290,2,0,1,0,NaN
11,290,2,0,2,0,NaN
11,291,2,0,1,0,NaN
11,291,2,0,1,0,NaN
11,291,2,0,2,1,408
11,292,2,0,1,0,NaN
11,292,2,1,2,1,516
11,293,2,0,1,0,NaN
11,293,2,0,2,0,NaN
11,293,2,0,2,1,483
11,295,1,1,1,1,542
11,296,1,1,1,0,NaN
11,296,1,0,2,2,483
11,297,2,0,1,3,NaN
11,297,2,0,1,3,NaN
11,300,2,0,2,0,NaN
11,300,2,0,2,0,NaN
11,300,2,0,2,1,442
11,302,1,0,2,0,NaN
11,302,1,1,1,1,458
11,303,1,0,2,2,475
11,306,1,1,1,0,NaN
11,306,1,0,2,0,NaN
11,306,1,1,1,1,466
11,308,1,1,1,1,500
11,309,1,0,2,2,550
11,309,1,0,2,0,NaN
11,309,1,0,2,0,NaN
11,312,2,0,1,0,NaN
11,312,2,1,2,0,NaN
11,312,2,0,2,1,783
11,313,2,0,2,1,450
11,313,2,0,1,0,NaN
11,315,2,1,2,0,NaN
11,315,2,0,2,1,475
11,316,1,1,1,0,NaN
11,316,1,1,1,1,392
11,320,1,1,1,1,684
11,321,2,0,2,1,608
11,322,2,0,1,3,NaN
11,325,1,1,1,1,516
11,326,1,0,1,0,NaN
11,326,1,0,1,1,417
11,327,1,1,1,0,NaN
11,327,1,1,1,1,417
11,327,1,0,2,0,NaN
11,328,2,0,1,2,483
11,328,2,1,2,0,NaN
11,329,1,1,1,0,NaN
11,329,1,0,1,0,NaN
11,329,1,0,2,2,517
11,332,2,0,1,0,NaN
11,332,2,0,2,1,542
11,332,2,0,1,0,NaN
11,333,1,0,2,0,NaN
11,333,1,1,1,1,476
11,334,2,0,2,0,NaN
11,334,2,0,2,1,550
11,335,1,0,2,0,NaN
11,335,1,1,1,1,424
11,335,1,0,2,0,NaN
11,337,2,0,1,3,NaN
11,338,2,0,1,2,567
11,339,2,0,2,1,475
11,341,2,0,1,3,NaN
11,342,1,0,2,0,NaN
11,342,1,1,1,1,550
11,343,2,0,1,0,NaN
11,343,2,0,2,1,575
11,345,1,0,2,0,NaN
11,345,1,1,1,1,484
11,346,1,0,2,2,609
11,347,1,0,2,0,NaN
11,347,1,1,1,1,533
11,350,2,0,1,3,NaN
11,350,2,0,1,3,NaN
11,352,2,0,2,1,550
11,352,2,0,1,0,NaN
11,353,2,0,2,1,558
11,353,2,0,1,0,NaN
11,354,1,0,2,0,NaN
11,354,1,1,1,1,483
11,355,2,0,1,3,NaN
11,357,2,1,2,0,NaN
11,357,2,0,2,1,783
11,359,2,0,1,3,NaN
11,359,2,0,1,3,NaN
11,361,2,0,2,1,692
11,364,1,0,2,0,NaN
11,364,1,1,1,1,550
11,369,2,0,1,3,NaN
11,369,2,0,1,3,NaN
11,369,2,0,1,3,NaN
11,370,1,1,1,0,NaN
11,370,1,0,2,3,NaN
11,370,1,0,2,3,NaN
11,372,2,0,2,0,NaN
11,372,2,0,2,1,509
11,373,2,0,1,3,NaN
11,373,2,0,1,3,NaN
11,373,2,0,1,3,NaN
11,374,2,0,2,1,492
11,374,2,0,1,0,NaN
11,374,2,0,1,0,NaN
11,375,2,0,2,0,NaN
11,375,2,0,2,0,NaN
11,375,2,0,2,1,292
11,376,2,0,1,3,NaN
11,376,2,0,1,3,NaN
11,377,1,0,2,0,NaN
11,377,1,0,1,1,467
11,378,1,0,2,0,NaN
11,378,1,0,1,0,NaN
11,378,1,0,2,2,408
11,379,1,1,1,1,858
11,379,1,0,2,0,NaN
11,380,1,1,1,1,509
11,380,1,0,2,0,NaN
11,380,1,0,2,0,NaN
11,383,2,0,1,3,NaN
11,385,1,0,1,0,NaN
11,385,1,0,2,0,NaN
11,385,1,1,1,1,433
11,387,1,0,2,0,NaN
11,387,1,1,1,0,NaN
11,387,1,0,2,2,566
11,388,1,1,1,1,533
11,389,2,0,1,0,NaN
11,389,2,0,2,0,NaN
11,389,2,1,2,0,NaN
11,390,1,0,2,0,NaN
11,390,1,1,1,0,NaN
11,390,1,1,1,1,467
11,393,2,0,2,0,NaN
11,393,2,0,2,0,NaN
11,393,2,1,2,1,608
11,395,2,0,1,0,NaN
11,395,2,0,1,2,584
11,396,2,0,1,0,NaN
11,396,2,0,2,1,533
11,398,1,0,2,3,NaN
11,399,2,1,2,0,NaN
11,399,2,0,2,1,551
11,400,1,0,2,2,542
11,401,2,0,2,0,NaN
11,401,2,0,2,1,467
11,402,2,0,1,0,NaN
11,402,2,0,2,1,390
11,405,2,0,1,0,NaN
11,405,2,0,2,1,449
11,409,1,0,2,0,NaN
11,409,1,0,1,1,666
11,410,1,0,1,1,699
11,411,1,0,2,0,NaN
11,412,2,0,1,3,NaN
11,412,2,0,1,3,NaN
11,413,2,0,2,1,842
11,413,2,0,1,0,NaN
11,415,2,0,2,0,NaN
11,415,2,0,2,0,NaN
11,415,2,0,2,1,417
11,417,1,0,1,0,NaN
11,417,1,0,1,1,384
11,418,2,0,1,3,NaN
11,419,1,0,1,0,NaN
11,419,1,0,1,1,575
11,420,1,0,2,0,NaN
11,420,1,0,2,0,NaN
11,420,1,0,1,1,474
11,421,2,0,2,0,NaN
11,421,2,0,2,1,449
11,423,2,0,1,3,NaN
11,424,1,0,2,0,NaN
11,424,1,0,2,2,484
11,426,2,0,2,1,617
11,427,1,0,1,1,483
11,430,2,0,2,1,509
11,431,1,0,2,2,650
11,431,1,0,2,0,NaN
11,432,2,0,1,3,NaN
11,433,1,0,2,2,467
11,433,1,0,2,0,NaN
11,435,2,0,2,1,583
11,437,2,0,1,0,NaN
11,437,2,0,2,1,500
11,438,1,0,1,0,NaN
11,438,1,0,2,2,475
11,441,1,0,1,0,NaN
11,441,1,0,2,2,650
11,442,1,0,1,0,NaN
11,442,1,0,1,0,NaN
11,442,1,0,2,2,676
11,443,1,0,2,0,NaN
11,443,1,0,1,1,567
11,444,1,0,1,0,NaN
11,444,1,0,2,0,NaN
11,444,1,0,1,1,517
11,445,2,0,2,1,483
11,445,2,0,1,0,NaN
11,446,1,0,1,1,434
